#timestamp [ns],p_RS_R_x [m],p_RS_R_y [m],p_RS_R_z [m],q_RS_w [],q_RS_x [],q_RS_y [],q_RS_z [],v_RS_R_x [m s^-1],v_RS_R_y [m s^-1],v_RS_R_z [m s^-1],b_w_RS_S_x [rad s^-1],b_w_RS_S_y [rad s^-1],b_w_RS_S_z [rad s^-1],b_a_RS_S_x [m s^-2],b_a_RS_S_y [m s^-2],b_a_RS_S_z [m s^-2]
0,0.000000000,0.000000000,0.000000000,1.000000000,0.000000000,0.000000000,0.000000000,0.000000000,0.000000000,0.000000000,0.000000000,0.000000000,0.000000000,0.000000000,0.000000000,0.000000000
5000000,0.000000000,0.000000000,0.000000000,0.999999904,0.000000000,0.000420735,0.000119856,0.000000000,0.000000000,0.000000000,0.000000000,0.000000000,0.000000000,0.000000000,0.000000000,0.000000000
10000000,0.000000000,0.000000000,0.000000000,0.999999617,0.000001178,0.000841725,0.000239850,0.000000000,0.000000000,0.000000000,0.000000000,0.000000000,0.000000000,0.000000000,0.000000000,0.000000000
15000000,0.000000000,0.000000000,0.000000000,0.999999138,0.000003534,0.001262969,0.000359980,0.000000000,0.000000000,0.000000000,0.000000000,0.000000000,0.000000000,0.000000000,0.000000000,0.000000000
20000000,0.000000000,0.000000000,0.000000000,0.999998466,0.000007069,0.001684467,0.000480247,0.000000000,0.000000000,0.000000000,0.000000000,0.000000000,0.000000000,0.000000000,0.000000000,0.000000000
25000000,0.000000000,0.000000000,0.000000000,0.999997601,0.000011781,0.002106219,0.000600649,0.000000000,0.000000000,0.000000000,0.000000000,0.000000000,0.000000000,0.000000000,0.000000000,0.000000000
30000000,0.000000000,0.000000000,0.000000000,0.999996544,0.000017672,0.002528224,0.000721187,0.000000000,0.000000000,0.000000000,0.000000000,0.000000000,0.000000000,0.000000000,0.000000000,0.000000000
35000000,0.000000000,0.000000000,0.000000000,0.999995293,0.000024741,0.002950481,0.000841858,0.000000000,0.000000000,0.000000000,0.000000000,0.000000000,0.000000000,0.000000000,0.000000000,0.000000000
40000000,0.000000000,0.000000000,0.000000000,0.999993848,0.000032989,0.003372992,0.000962664,0.000000000,0.000000000,0.000000000,0.000000000,0.000000000,0.000000000,0.000000000,0.000000000,0.000000000
45000000,0.000000000,0.000000000,0.000000000,0.999992208,0.000042414,0.003795754,0.001083603,0.000000000,0.000000000,0.000000000,0.000000000,0.000000000,0.000000000,0.000000000,0.000000000,0.000000000
50000000,0.000000000,0.000000000,0.000000000,0.999990374,0.000053018,0.004218769,0.001204675,0.000000000,0.000000000,0.000000000,0.000000000,0.000000000,0.000000000,0.000000000,0.000000000,0.000000000
55000000,0.000000000,0.000000000,0.000000000,0.999988345,0.000064800,0.004642035,0.001325879,0.000000000,0.000000000,0.000000000,0.000000000,0.000000000,0.000000000,0.000000000,0.000000000,0.000000000
60000000,0.000000000,0.000000000,0.000000000,0.999986120,0.000077760,0.005065552,0.001447214,0.000000000,0.000000000,0.000000000,0.000000000,0.000000000,0.000000000,0.000000000,0.000000000,0.000000000
65000000,0.000000000,0.000000000,0.000000000,0.999983699,0.000091898,0.005489321,0.001568681,0.000000000,0.000000000,0.000000000,0.000000000,0.000000000,0.000000000,0.000000000,0.000000000,0.000000000
70000000,0.000000000,0.000000000,0.000000000,0.999981082,0.000107215,0.005913340,0.001690278,0.000000000,0.000000000,0.000000000,0.000000000,0.000000000,0.000000000,0.000000000,0.000000000,0.000000000
75000000,0.000000000,0.000000000,0.000000000,0.999978268,0.000123709,0.006337609,0.001812005,0.000000000,0.000000000,0.000000000,0.000000000,0.000000000,0.000000000,0.000000000,0.000000000,0.000000000
80000000,0.000000000,0.000000000,0.000000000,0.999975257,0.000141382,0.006762129,0.001933862,0.000000000,0.000000000,0.000000000,0.000000000,0.000000000,0.000000000,0.000000000,0.000000000,0.000000000
85000000,0.000000000,0.000000000,0.000000000,0.999972048,0.000160233,0.007186898,0.002055847,0.000000000,0.000000000,0.000000000,0.000000000,0.000000000,0.000000000,0.000000000,0.000000000,0.000000000
90000000,0.000000000,0.000000000,0.000000000,0.999968641,0.000180262,0.007611917,0.002177960,0.000000000,0.000000000,0.000000000,0.000000000,0.000000000,0.000000000,0.000000000,0.000000000,0.000000000
95000000,0.000000000,0.000000000,0.000000000,0.999965035,0.000201470,0.008037184,0.002300202,0.000000000,0.000000000,0.000000000,0.000000000,0.000000000,0.000000000,0.000000000,0.000000000,0.000000000
100000000,0.000000000,0.000000000,0.000000000,0.999961231,0.000223855,0.008462701,0.002422570,0.000000000,0.000000000,0.000000000,0.000000000,0.000000000,0.000000000,0.000000000,0.000000000,0.000000000
105000000,0.000000000,0.000000000,0.000000000,0.999957227,0.000247418,0.008888466,0.002545065,0.000000000,0.000000000,0.000000000,0.000000000,0.000000000,0.000000000,0.000000000,0.000000000,0.000000000
110000000,0.000000000,0.000000000,0.000000000,0.999953024,0.000272159,0.009314479,0.002667685,0.000000000,0.000000000,0.000000000,0.000000000,0.000000000,0.000000000,0.000000000,0.000000000,0.000000000
115000000,0.000000000,0.000000000,0.000000000,0.999948620,0.000298079,0.009740740,0.002790432,0.000000000,0.000000000,0.000000000,0.000000000,0.000000000,0.000000000,0.000000000,0.000000000,0.000000000
120000000,0.000000000,0.000000000,0.000000000,0.999944015,0.000325176,0.010167248,0.002913302,0.000000000,0.000000000,0.000000000,0.000000000,0.000000000,0.000000000,0.000000000,0.000000000,0.000000000
125000000,0.000000000,0.000000000,0.000000000,0.999939210,0.000353451,0.010594003,0.003036298,0.000000000,0.000000000,0.000000000,0.000000000,0.000000000,0.000000000,0.000000000,0.000000000,0.000000000
130000000,0.000000000,0.000000000,0.000000000,0.999934202,0.000382903,0.011021006,0.003159417,0.000000000,0.000000000,0.000000000,0.000000000,0.000000000,0.000000000,0.000000000,0.000000000,0.000000000
135000000,0.000000000,0.000000000,0.000000000,0.999928993,0.000413534,0.011448254,0.003282659,0.000000000,0.000000000,0.000000000,0.000000000,0.000000000,0.000000000,0.000000000,0.000000000,0.000000000
140000000,0.000000000,0.000000000,0.000000000,0.999923581,0.000445342,0.011875749,0.003406023,0.000000000,0.000000000,0.000000000,0.000000000,0.000000000,0.000000000,0.000000000,0.000000000,0.000000000
145000000,0.000000000,0.000000000,0.000000000,0.999917966,0.000478328,0.012303490,0.003529510,0.000000000,0.000000000,0.000000000,0.000000000,0.000000000,0.000000000,0.000000000,0.000000000,0.000000000
150000000,0.000000000,0.000000000,0.000000000,0.999912147,0.000512491,0.012731476,0.003653118,0.000000000,0.000000000,0.000000000,0.000000000,0.000000000,0.000000000,0.000000000,0.000000000,0.000000000
155000000,0.000000000,0.000000000,0.000000000,0.999906124,0.000547832,0.013159707,0.003776846,0.000000000,0.000000000,0.000000000,0.000000000,0.000000000,0.000000000,0.000000000,0.000000000,0.000000000
160000000,0.000000000,0.000000000,0.000000000,0.999899897,0.000584350,0.013588183,0.003900695,0.000000000,0.000000000,0.000000000,0.000000000,0.000000000,0.000000000,0.000000000,0.000000000,0.000000000
165000000,0.000000000,0.000000000,0.000000000,0.999893465,0.000622045,0.014016904,0.004024664,0.000000000,0.000000000,0.000000000,0.000000000,0.000000000,0.000000000,0.000000000,0.000000000,0.000000000
170000000,0.000000000,0.000000000,0.000000000,0.999886828,0.000660918,0.014445868,0.004148752,0.000000000,0.000000000,0.000000000,0.000000000,0.000000000,0.000000000,0.000000000,0.000000000,0.000000000
175000000,0.000000000,0.000000000,0.000000000,0.999879984,0.000700968,0.014875077,0.004272958,0.000000000,0.000000000,0.000000000,0.000000000,0.000000000,0.000000000,0.000000000,0.000000000,0.000000000
180000000,0.000000000,0.000000000,0.000000000,0.999872934,0.000742195,0.015304529,0.004397282,0.000000000,0.000000000,0.000000000,0.000000000,0.000000000,0.000000000,0.000000000,0.000000000,0.000000000
185000000,0.000000000,0.000000000,0.000000000,0.999865677,0.000784599,0.015734224,0.004521724,0.000000000,0.000000000,0.000000000,0.000000000,0.000000000,0.000000000,0.000000000,0.000000000,0.000000000
190000000,0.000000000,0.000000000,0.000000000,0.999858213,0.000828179,0.016164162,0.004646283,0.000000000,0.000000000,0.000000000,0.000000000,0.000000000,0.000000000,0.000000000,0.000000000,0.000000000
195000000,0.000000000,0.000000000,0.000000000,0.999850541,0.000872937,0.016594343,0.004770958,0.000000000,0.000000000,0.000000000,0.000000000,0.000000000,0.000000000,0.000000000,0.000000000,0.000000000
200000000,0.000000000,0.000000000,0.000000000,0.999842660,0.000918871,0.017024765,0.004895748,0.000000000,0.000000000,0.000000000,0.000000000,0.000000000,0.000000000,0.000000000,0.000000000,0.000000000
205000000,0.000000000,0.000000000,0.000000000,0.999834570,0.000965982,0.017455430,0.005020654,0.000000000,0.000000000,0.000000000,0.000000000,0.000000000,0.000000000,0.000000000,0.000000000,0.000000000
210000000,0.000000000,0.000000000,0.000000000,0.999826271,0.001014270,0.017886336,0.005145674,0.000000000,0.000000000,0.000000000,0.000000000,0.000000000,0.000000000,0.000000000,0.000000000,0.000000000
215000000,0.000000000,0.000000000,0.000000000,0.999817762,0.001063733,0.018317483,0.005270808,0.000000000,0.000000000,0.000000000,0.000000000,0.000000000,0.000000000,0.000000000,0.000000000,0.000000000
220000000,0.000000000,0.000000000,0.000000000,0.999809042,0.001114374,0.018748871,0.005396056,0.000000000,0.000000000,0.000000000,0.000000000,0.000000000,0.000000000,0.000000000,0.000000000,0.000000000
225000000,0.000000000,0.000000000,0.000000000,0.999800111,0.001166190,0.019180499,0.005521416,0.000000000,0.000000000,0.000000000,0.000000000,0.000000000,0.000000000,0.000000000,0.000000000,0.000000000
230000000,0.000000000,0.000000000,0.000000000,0.999790969,0.001219182,0.019612367,0.005646889,0.000000000,0.000000000,0.000000000,0.000000000,0.000000000,0.000000000,0.000000000,0.000000000,0.000000000
235000000,0.000000000,0.000000000,0.000000000,0.999781614,0.001273350,0.020044475,0.005772474,0.000000000,0.000000000,0.000000000,0.000000000,0.000000000,0.000000000,0.000000000,0.000000000,0.000000000
240000000,0.000000000,0.000000000,0.000000000,0.999772047,0.001328694,0.020476823,0.005898169,0.000000000,0.000000000,0.000000000,0.000000000,0.000000000,0.000000000,0.000000000,0.000000000,0.000000000
245000000,0.000000000,0.000000000,0.000000000,0.999762266,0.001385214,0.020909410,0.006023975,0.000000000,0.000000000,0.000000000,0.000000000,0.000000000,0.000000000,0.000000000,0.000000000,0.000000000
250000000,0.000000000,0.000000000,0.000000000,0.999752272,0.001442909,0.021342235,0.006149891,0.000000000,0.000000000,0.000000000,0.000000000,0.000000000,0.000000000,0.000000000,0.000000000,0.000000000
255000000,0.000000000,0.000000000,0.000000000,0.999742064,0.001501780,0.021775299,0.006275917,0.000000000,0.000000000,0.000000000,0.000000000,0.000000000,0.000000000,0.000000000,0.000000000,0.000000000
260000000,0.000000000,0.000000000,0.000000000,0.999731640,0.001561825,0.022208601,0.006402051,0.000000000,0.000000000,0.000000000,0.000000000,0.000000000,0.000000000,0.000000000,0.000000000,0.000000000
265000000,0.000000000,0.000000000,0.000000000,0.999721001,0.001623046,0.022642141,0.006528294,0.000000000,0.000000000,0.000000000,0.000000000,0.000000000,0.000000000,0.000000000,0.000000000,0.000000000
270000000,0.000000000,0.000000000,0.000000000,0.999710147,0.001685442,0.023075918,0.006654644,0.000000000,0.000000000,0.000000000,0.000000000,0.000000000,0.000000000,0.000000000,0.000000000,0.000000000
275000000,0.000000000,0.000000000,0.000000000,0.999699075,0.001749013,0.023509932,0.006781101,0.000000000,0.000000000,0.000000000,0.000000000,0.000000000,0.000000000,0.000000000,0.000000000,0.000000000
280000000,0.000000000,0.000000000,0.000000000,0.999687787,0.001813758,0.023944182,0.006907665,0.000000000,0.000000000,0.000000000,0.000000000,0.000000000,0.000000000,0.000000000,0.000000000,0.000000000
285000000,0.000000000,0.000000000,0.000000000,0.999676280,0.001879678,0.024378669,0.007034335,0.000000000,0.000000000,0.000000000,0.000000000,0.000000000,0.000000000,0.000000000,0.000000000,0.000000000
290000000,0.000000000,0.000000000,0.000000000,0.999664556,0.001946772,0.024813392,0.007161111,0.000000000,0.000000000,0.000000000,0.000000000,0.000000000,0.000000000,0.000000000,0.000000000,0.000000000
295000000,0.000000000,0.000000000,0.000000000,0.999652612,0.002015040,0.025248351,0.007287991,0.000000000,0.000000000,0.000000000,0.000000000,0.000000000,0.000000000,0.000000000,0.000000000,0.000000000
300000000,0.000000000,0.000000000,0.000000000,0.999640450,0.002084483,0.025683544,0.007414975,0.000000000,0.000000000,0.000000000,0.000000000,0.000000000,0.000000000,0.000000000,0.000000000,0.000000000
305000000,0.000000000,0.000000000,0.000000000,0.999628067,0.002155099,0.026118973,0.007542063,0.000000000,0.000000000,0.000000000,0.000000000,0.000000000,0.000000000,0.000000000,0.000000000,0.000000000
310000000,0.000000000,0.000000000,0.000000000,0.999615463,0.002226889,0.026554636,0.007669255,0.000000000,0.000000000,0.000000000,0.000000000,0.000000000,0.000000000,0.000000000,0.000000000,0.000000000
315000000,0.000000000,0.000000000,0.000000000,0.999602639,0.002299852,0.026990534,0.007796548,0.000000000,0.000000000,0.000000000,0.000000000,0.000000000,0.000000000,0.000000000,0.000000000,0.000000000
320000000,0.000000000,0.000000000,0.000000000,0.999589592,0.002373989,0.027426665,0.007923944,0.000000000,0.000000000,0.000000000,0.000000000,0.000000000,0.000000000,0.000000000,0.000000000,0.000000000
325000000,0.000000000,0.000000000,0.000000000,0.999576324,0.002449299,0.027863030,0.008051441,0.000000000,0.000000000,0.000000000,0.000000000,0.000000000,0.000000000,0.000000000,0.000000000,0.000000000
330000000,0.000000000,0.000000000,0.000000000,0.999562832,0.002525781,0.028299628,0.008179039,0.000000000,0.000000000,0.000000000,0.000000000,0.000000000,0.000000000,0.000000000,0.000000000,0.000000000
335000000,0.000000000,0.000000000,0.000000000,0.999549116,0.002603437,0.028736459,0.008306737,0.000000000,0.000000000,0.000000000,0.000000000,0.000000000,0.000000000,0.000000000,0.000000000,0.000000000
340000000,0.000000000,0.000000000,0.000000000,0.999535177,0.002682265,0.029173522,0.008434535,0.000000000,0.000000000,0.000000000,0.000000000,0.000000000,0.000000000,0.000000000,0.000000000,0.000000000
345000000,0.000000000,0.000000000,0.000000000,0.999521012,0.002762265,0.029610817,0.008562432,0.000000000,0.000000000,0.000000000,0.000000000,0.000000000,0.000000000,0.000000000,0.000000000,0.000000000
350000000,0.000000000,0.000000000,0.000000000,0.999506622,0.002843438,0.030048344,0.008690428,0.000000000,0.000000000,0.000000000,0.000000000,0.000000000,0.000000000,0.000000000,0.000000000,0.000000000
355000000,0.000000000,0.000000000,0.000000000,0.999492007,0.002925782,0.030486102,0.008818521,0.000000000,0.000000000,0.000000000,0.000000000,0.000000000,0.000000000,0.000000000,0.000000000,0.000000000
360000000,0.000000000,0.000000000,0.000000000,0.999477164,0.003009298,0.030924091,0.008946712,0.000000000,0.000000000,0.000000000,0.000000000,0.000000000,0.000000000,0.000000000,0.000000000,0.000000000
365000000,0.000000000,0.000000000,0.000000000,0.999462094,0.003093986,0.031362311,0.009075000,0.000000000,0.000000000,0.000000000,0.000000000,0.000000000,0.000000000,0.000000000,0.000000000,0.000000000
370000000,0.000000000,0.000000000,0.000000000,0.999446796,0.003179845,0.031800761,0.009203384,0.000000000,0.000000000,0.000000000,0.000000000,0.000000000,0.000000000,0.000000000,0.000000000,0.000000000
375000000,0.000000000,0.000000000,0.000000000,0.999431269,0.003266875,0.032239441,0.009331863,0.000000000,0.000000000,0.000000000,0.000000000,0.000000000,0.000000000,0.000000000,0.000000000,0.000000000
380000000,0.000000000,0.000000000,0.000000000,0.999415514,0.003355076,0.032678350,0.009460438,0.000000000,0.000000000,0.000000000,0.000000000,0.000000000,0.000000000,0.000000000,0.000000000,0.000000000
385000000,0.000000000,0.000000000,0.000000000,0.999399528,0.003444448,0.033117489,0.009589107,0.000000000,0.000000000,0.000000000,0.000000000,0.000000000,0.000000000,0.000000000,0.000000000,0.000000000
390000000,0.000000000,0.000000000,0.000000000,0.999383312,0.003534990,0.033556856,0.009717870,0.000000000,0.000000000,0.000000000,0.000000000,0.000000000,0.000000000,0.000000000,0.000000000,0.000000000
395000000,0.000000000,0.000000000,0.000000000,0.999366865,0.003626703,0.033996452,0.009846727,0.000000000,0.000000000,0.000000000,0.000000000,0.000000000,0.000000000,0.000000000,0.000000000,0.000000000
400000000,0.000000000,0.000000000,0.000000000,0.999350186,0.003719585,0.034436276,0.009975676,0.000000000,0.000000000,0.000000000,0.000000000,0.000000000,0.000000000,0.000000000,0.000000000,0.000000000
405000000,0.000000000,0.000000000,0.000000000,0.999333274,0.003813637,0.034876328,0.010104718,0.000000000,0.000000000,0.000000000,0.000000000,0.000000000,0.000000000,0.000000000,0.000000000,0.000000000
410000000,0.000000000,0.000000000,0.000000000,0.999316129,0.003908858,0.035316606,0.010233851,0.000000000,0.000000000,0.000000000,0.000000000,0.000000000,0.000000000,0.000000000,0.000000000,0.000000000
415000000,0.000000000,0.000000000,0.000000000,0.999298751,0.004005249,0.035757112,0.010363075,0.000000000,0.000000000,0.000000000,0.000000000,0.000000000,0.000000000,0.000000000,0.000000000,0.000000000
420000000,0.000000000,0.000000000,0.000000000,0.999281138,0.004102809,0.036197845,0.010492390,0.000000000,0.000000000,0.000000000,0.000000000,0.000000000,0.000000000,0.000000000,0.000000000,0.000000000
425000000,0.000000000,0.000000000,0.000000000,0.999263290,0.004201537,0.036638803,0.010621795,0.000000000,0.000000000,0.000000000,0.000000000,0.000000000,0.000000000,0.000000000,0.000000000,0.000000000
430000000,0.000000000,0.000000000,0.000000000,0.999245206,0.004301434,0.037079988,0.010751289,0.000000000,0.000000000,0.000000000,0.000000000,0.000000000,0.000000000,0.000000000,0.000000000,0.000000000
435000000,0.000000000,0.000000000,0.000000000,0.999226886,0.004402500,0.037521397,0.010880871,0.000000000,0.000000000,0.000000000,0.000000000,0.000000000,0.000000000,0.000000000,0.000000000,0.000000000
440000000,0.000000000,0.000000000,0.000000000,0.999208328,0.004504733,0.037963032,0.011010542,0.000000000,0.000000000,0.000000000,0.000000000,0.000000000,0.000000000,0.000000000,0.000000000,0.000000000
445000000,0.000000000,0.000000000,0.000000000,0.999189533,0.004608133,0.038404892,0.011140301,0.000000000,0.000000000,0.000000000,0.000000000,0.000000000,0.000000000,0.000000000,0.000000000,0.000000000
450000000,0.000000000,0.000000000,0.000000000,0.999170499,0.004712702,0.038846976,0.011270147,0.000000000,0.000000000,0.000000000,0.000000000,0.000000000,0.000000000,0.000000000,0.000000000,0.000000000
455000000,0.000000000,0.000000000,0.000000000,0.999151226,0.004818437,0.039289284,0.011400079,0.000000000,0.000000000,0.000000000,0.000000000,0.000000000,0.000000000,0.000000000,0.000000000,0.000000000
460000000,0.000000000,0.000000000,0.000000000,0.999131713,0.004925339,0.039731815,0.011530097,0.000000000,0.000000000,0.000000000,0.000000000,0.000000000,0.000000000,0.000000000,0.000000000,0.000000000
465000000,0.000000000,0.000000000,0.000000000,0.999111960,0.005033408,0.040174570,0.011660201,0.000000000,0.000000000,0.000000000,0.000000000,0.000000000,0.000000000,0.000000000,0.000000000,0.000000000
470000000,0.000000000,0.000000000,0.000000000,0.999091965,0.005142643,0.040617547,0.011790389,0.000000000,0.000000000,0.000000000,0.000000000,0.000000000,0.000000000,0.000000000,0.000000000,0.000000000
475000000,0.000000000,0.000000000,0.000000000,0.999071728,0.005253045,0.041060747,0.011920662,0.000000000,0.000000000,0.000000000,0.000000000,0.000000000,0.000000000,0.000000000,0.000000000,0.000000000
480000000,0.000000000,0.000000000,0.000000000,0.999051249,0.005364612,0.041504169,0.012051018,0.000000000,0.000000000,0.000000000,0.000000000,0.000000000,0.000000000,0.000000000,0.000000000,0.000000000
485000000,0.000000000,0.000000000,0.000000000,0.999030526,0.005477344,0.041947812,0.012181457,0.000000000,0.000000000,0.000000000,0.000000000,0.000000000,0.000000000,0.000000000,0.000000000,0.000000000
490000000,0.000000000,0.000000000,0.000000000,0.999009559,0.005591241,0.042391677,0.012311978,0.000000000,0.000000000,0.000000000,0.000000000,0.000000000,0.000000000,0.000000000,0.000000000,0.000000000
495000000,0.000000000,0.000000000,0.000000000,0.998988347,0.005706304,0.042835762,0.012442582,0.000000000,0.000000000,0.000000000,0.000000000,0.000000000,0.000000000,0.000000000,0.000000000,0.000000000
500000000,0.000000000,0.000000000,0.000000000,0.998966890,0.005822531,0.043280068,0.012573267,0.000000000,0.000000000,0.000000000,0.000000000,0.000000000,0.000000000,0.000000000,0.000000000,0.000000000
505000000,0.000000000,0.000000000,0.000000000,0.998945186,0.005939922,0.043724595,0.012704032,0.000000000,0.000000000,0.000000000,0.000000000,0.000000000,0.000000000,0.000000000,0.000000000,0.000000000
510000000,0.000000000,0.000000000,0.000000000,0.998923235,0.006058477,0.044169341,0.012834878,0.000000000,0.000000000,0.000000000,0.000000000,0.000000000,0.000000000,0.000000000,0.000000000,0.000000000
515000000,0.000000000,0.000000000,0.000000000,0.998901037,0.006178196,0.044614306,0.012965804,0.000000000,0.000000000,0.000000000,0.000000000,0.000000000,0.000000000,0.000000000,0.000000000,0.000000000
520000000,0.000000000,0.000000000,0.000000000,0.998878590,0.006299078,0.045059490,0.013096808,0.000000000,0.000000000,0.000000000,0.000000000,0.000000000,0.000000000,0.000000000,0.000000000,0.000000000
525000000,0.000000000,0.000000000,0.000000000,0.998855894,0.006421122,0.045504893,0.013227891,0.000000000,0.000000000,0.000000000,0.000000000,0.000000000,0.000000000,0.000000000,0.000000000,0.000000000
530000000,0.000000000,0.000000000,0.000000000,0.998832948,0.006544330,0.045950513,0.013359052,0.000000000,0.000000000,0.000000000,0.000000000,0.000000000,0.000000000,0.000000000,0.000000000,0.000000000
535000000,0.000000000,0.000000000,0.000000000,0.998809751,0.006668700,0.046396352,0.013490290,0.000000000,0.000000000,0.000000000,0.000000000,0.000000000,0.000000000,0.000000000,0.000000000,0.000000000
540000000,0.000000000,0.000000000,0.000000000,0.998786303,0.006794232,0.046842408,0.013621605,0.000000000,0.000000000,0.000000000,0.000000000,0.000000000,0.000000000,0.000000000,0.000000000,0.000000000
545000000,0.000000000,0.000000000,0.000000000,0.998762603,0.006920925,0.047288681,0.013752996,0.000000000,0.000000000,0.000000000,0.000000000,0.000000000,0.000000000,0.000000000,0.000000000,0.000000000
550000000,0.000000000,0.000000000,0.000000000,0.998738649,0.007048780,0.047735170,0.013884462,0.000000000,0.000000000,0.000000000,0.000000000,0.000000000,0.000000000,0.000000000,0.000000000,0.000000000
555000000,0.000000000,0.000000000,0.000000000,0.998714443,0.007177796,0.048181876,0.014016004,0.000000000,0.000000000,0.000000000,0.000000000,0.000000000,0.000000000,0.000000000,0.000000000,0.000000000
560000000,0.000000000,0.000000000,0.000000000,0.998689981,0.007307972,0.048628797,0.014147620,0.000000000,0.000000000,0.000000000,0.000000000,0.000000000,0.000000000,0.000000000,0.000000000,0.000000000
565000000,0.000000000,0.000000000,0.000000000,0.998665265,0.007439309,0.049075934,0.014279310,0.000000000,0.000000000,0.000000000,0.000000000,0.000000000,0.000000000,0.000000000,0.000000000,0.000000000
570000000,0.000000000,0.000000000,0.000000000,0.998640292,0.007571806,0.049523285,0.014411073,0.000000000,0.000000000,0.000000000,0.000000000,0.000000000,0.000000000,0.000000000,0.000000000,0.000000000
575000000,0.000000000,0.000000000,0.000000000,0.998615063,0.007705462,0.049970852,0.014542909,0.000000000,0.000000000,0.000000000,0.000000000,0.000000000,0.000000000,0.000000000,0.000000000,0.000000000
580000000,0.000000000,0.000000000,0.000000000,0.998589576,0.007840277,0.050418632,0.014674817,0.000000000,0.000000000,0.000000000,0.000000000,0.000000000,0.000000000,0.000000000,0.000000000,0.000000000
585000000,0.000000000,0.000000000,0.000000000,0.998563831,0.007976252,0.050866626,0.014806797,0.000000000,0.000000000,0.000000000,0.000000000,0.000000000,0.000000000,0.000000000,0.000000000,0.000000000
590000000,0.000000000,0.000000000,0.000000000,0.998537827,0.008113384,0.051314834,0.014938848,0.000000000,0.000000000,0.000000000,0.000000000,0.000000000,0.000000000,0.000000000,0.000000000,0.000000000
595000000,0.000000000,0.000000000,0.000000000,0.998511563,0.008251675,0.051763254,0.015070969,0.000000000,0.000000000,0.000000000,0.000000000,0.000000000,0.000000000,0.000000000,0.000000000,0.000000000
600000000,0.000000000,0.000000000,0.000000000,0.998485038,0.008391124,0.052211887,0.015203160,0.000000000,0.000000000,0.000000000,0.000000000,0.000000000,0.000000000,0.000000000,0.000000000,0.000000000
605000000,0.000000000,0.000000000,0.000000000,0.998458252,0.008531730,0.052660732,0.015335421,0.000000000,0.000000000,0.000000000,0.000000000,0.000000000,0.000000000,0.000000000,0.000000000,0.000000000
610000000,0.000000000,0.000000000,0.000000000,0.998431204,0.008673493,0.053109789,0.015467750,0.000000000,0.000000000,0.000000000,0.000000000,0.000000000,0.000000000,0.000000000,0.000000000,0.000000000
615000000,0.000000000,0.000000000,0.000000000,0.998403893,0.008816412,0.053559057,0.015600147,0.000000000,0.000000000,0.000000000,0.000000000,0.000000000,0.000000000,0.000000000,0.000000000,0.000000000
620000000,0.000000000,0.000000000,0.000000000,0.998376318,0.008960488,0.054008536,0.015732612,0.000000000,0.000000000,0.000000000,0.000000000,0.000000000,0.000000000,0.000000000,0.000000000,0.000000000
625000000,0.000000000,0.000000000,0.000000000,0.998348479,0.009105719,0.054458225,0.015865144,0.000000000,0.000000000,0.000000000,0.000000000,0.000000000,0.000000000,0.000000000,0.000000000,0.000000000
630000000,0.000000000,0.000000000,0.000000000,0.998320374,0.009252106,0.054908125,0.015997742,0.000000000,0.000000000,0.000000000,0.000000000,0.000000000,0.000000000,0.000000000,0.000000000,0.000000000
635000000,0.000000000,0.000000000,0.000000000,0.998292003,0.009399648,0.055358234,0.016130406,0.000000000,0.000000000,0.000000000,0.000000000,0.000000000,0.000000000,0.000000000,0.000000000,0.000000000
640000000,0.000000000,0.000000000,0.000000000,0.998263365,0.009548345,0.055808552,0.016263135,0.000000000,0.000000000,0.000000000,0.000000000,0.000000000,0.000000000,0.000000000,0.000000000,0.000000000
645000000,0.000000000,0.000000000,0.000000000,0.998234459,0.009698195,0.056259079,0.016395929,0.000000000,0.000000000,0.000000000,0.000000000,0.000000000,0.000000000,0.000000000,0.000000000,0.000000000
650000000,0.000000000,0.000000000,0.000000000,0.998205284,0.009849200,0.056709815,0.016528788,0.000000000,0.000000000,0.000000000,0.000000000,0.000000000,0.000000000,0.000000000,0.000000000,0.000000000
655000000,0.000000000,0.000000000,0.000000000,0.998175840,0.010001358,0.057160758,0.016661710,0.000000000,0.000000000,0.000000000,0.000000000,0.000000000,0.000000000,0.000000000,0.000000000,0.000000000
660000000,0.000000000,0.000000000,0.000000000,0.998146126,0.010154669,0.057611909,0.016794694,0.000000000,0.000000000,0.000000000,0.000000000,0.000000000,0.000000000,0.000000000,0.000000000,0.000000000
665000000,0.000000000,0.000000000,0.000000000,0.998116141,0.010309132,0.058063268,0.016927742,0.000000000,0.000000000,0.000000000,0.000000000,0.000000000,0.000000000,0.000000000,0.000000000,0.000000000
670000000,0.000000000,0.000000000,0.000000000,0.998085883,0.010464748,0.058514833,0.017060851,0.000000000,0.000000000,0.000000000,0.000000000,0.000000000,0.000000000,0.000000000,0.000000000,0.000000000
675000000,0.000000000,0.000000000,0.000000000,0.998055354,0.010621515,0.058966604,0.017194021,0.000000000,0.000000000,0.000000000,0.000000000,0.000000000,0.000000000,0.000000000,0.000000000,0.000000000
680000000,0.000000000,0.000000000,0.000000000,0.998024550,0.010779434,0.059418581,0.017327252,0.000000000,0.000000000,0.000000000,0.000000000,0.000000000,0.000000000,0.000000000,0.000000000,0.000000000
685000000,0.000000000,0.000000000,0.000000000,0.997993472,0.010938503,0.059870763,0.017460544,0.000000000,0.000000000,0.000000000,0.000000000,0.000000000,0.000000000,0.000000000,0.000000000,0.000000000
690000000,0.000000000,0.000000000,0.000000000,0.997962119,0.011098723,0.060323151,0.017593895,0.000000000,0.000000000,0.000000000,0.000000000,0.000000000,0.000000000,0.000000000,0.000000000,0.000000000
695000000,0.000000000,0.000000000,0.000000000,0.997930490,0.011260093,0.060775743,0.017727304,0.000000000,0.000000000,0.000000000,0.000000000,0.000000000,0.000000000,0.000000000,0.000000000,0.000000000
700000000,0.000000000,0.000000000,0.000000000,0.997898583,0.011422612,0.061228539,0.017860773,0.000000000,0.000000000,0.000000000,0.000000000,0.000000000,0.000000000,0.000000000,0.000000000,0.000000000
705000000,0.000000000,0.000000000,0.000000000,0.997866399,0.011586281,0.061681539,0.017994299,0.000000000,0.000000000,0.000000000,0.000000000,0.000000000,0.000000000,0.000000000,0.000000000,0.000000000
710000000,0.000000000,0.000000000,0.000000000,0.997833937,0.011751098,0.062134742,0.018127882,0.000000000,0.000000000,0.000000000,0.000000000,0.000000000,0.000000000,0.000000000,0.000000000,0.000000000
715000000,0.000000000,0.000000000,0.000000000,0.997801195,0.011917063,0.062588148,0.018261523,0.000000000,0.000000000,0.000000000,0.000000000,0.000000000,0.000000000,0.000000000,0.000000000,0.000000000
720000000,0.000000000,0.000000000,0.000000000,0.997768172,0.012084176,0.063041757,0.018395219,0.000000000,0.000000000,0.000000000,0.000000000,0.000000000,0.000000000,0.000000000,0.000000000,0.000000000
725000000,0.000000000,0.000000000,0.000000000,0.997734869,0.012252436,0.063495567,0.018528971,0.000000000,0.000000000,0.000000000,0.000000000,0.000000000,0.000000000,0.000000000,0.000000000,0.000000000
730000000,0.000000000,0.000000000,0.000000000,0.997701283,0.012421843,0.063949579,0.018662778,0.000000000,0.000000000,0.000000000,0.000000000,0.000000000,0.000000000,0.000000000,0.000000000,0.000000000
735000000,0.000000000,0.000000000,0.000000000,0.997667414,0.012592396,0.064403792,0.018796639,0.000000000,0.000000000,0.000000000,0.000000000,0.000000000,0.000000000,0.000000000,0.000000000,0.000000000
740000000,0.000000000,0.000000000,0.000000000,0.997633262,0.012764095,0.064858206,0.018930554,0.000000000,0.000000000,0.000000000,0.000000000,0.000000000,0.000000000,0.000000000,0.000000000,0.000000000
745000000,0.000000000,0.000000000,0.000000000,0.997598825,0.012936940,0.065312820,0.019064523,0.000000000,0.000000000,0.000000000,0.000000000,0.000000000,0.000000000,0.000000000,0.000000000,0.000000000
750000000,0.000000000,0.000000000,0.000000000,0.997564102,0.013110929,0.065767633,0.019198544,0.000000000,0.000000000,0.000000000,0.000000000,0.000000000,0.000000000,0.000000000,0.000000000,0.000000000
755000000,0.000000000,0.000000000,0.000000000,0.997529093,0.013286063,0.066222646,0.019332617,0.000000000,0.000000000,0.000000000,0.000000000,0.000000000,0.000000000,0.000000000,0.000000000,0.000000000
760000000,0.000000000,0.000000000,0.000000000,0.997493797,0.013462340,0.066677858,0.019466742,0.000000000,0.000000000,0.000000000,0.000000000,0.000000000,0.000000000,0.000000000,0.000000000,0.000000000
765000000,0.000000000,0.000000000,0.000000000,0.997458212,0.013639761,0.067133269,0.019600918,0.000000000,0.000000000,0.000000000,0.000000000,0.000000000,0.000000000,0.000000000,0.000000000,0.000000000
770000000,0.000000000,0.000000000,0.000000000,0.997422339,0.013818325,0.067588877,0.019735145,0.000000000,0.000000000,0.000000000,0.000000000,0.000000000,0.000000000,0.000000000,0.000000000,0.000000000
775000000,0.000000000,0.000000000,0.000000000,0.997386175,0.013998032,0.068044683,0.019869421,0.000000000,0.000000000,0.000000000,0.000000000,0.000000000,0.000000000,0.000000000,0.000000000,0.000000000
780000000,0.000000000,0.000000000,0.000000000,0.997349721,0.014178880,0.068500686,0.020003746,0.000000000,0.000000000,0.000000000,0.000000000,0.000000000,0.000000000,0.000000000,0.000000000,0.000000000
785000000,0.000000000,0.000000000,0.000000000,0.997312975,0.014360870,0.068956886,0.020138121,0.000000000,0.000000000,0.000000000,0.000000000,0.000000000,0.000000000,0.000000000,0.000000000,0.000000000
790000000,0.000000000,0.000000000,0.000000000,0.997275936,0.014544000,0.069413282,0.020272543,0.000000000,0.000000000,0.000000000,0.000000000,0.000000000,0.000000000,0.000000000,0.000000000,0.000000000
795000000,0.000000000,0.000000000,0.000000000,0.997238604,0.014728271,0.069869873,0.020407013,0.000000000,0.000000000,0.000000000,0.000000000,0.000000000,0.000000000,0.000000000,0.000000000,0.000000000
800000000,0.000000000,0.000000000,0.000000000,0.997200977,0.014913682,0.070326660,0.020541531,0.000000000,0.000000000,0.000000000,0.000000000,0.000000000,0.000000000,0.000000000,0.000000000,0.000000000
805000000,0.000000000,0.000000000,0.000000000,0.997163055,0.015100233,0.070783642,0.020676094,0.000000000,0.000000000,0.000000000,0.000000000,0.000000000,0.000000000,0.000000000,0.000000000,0.000000000
810000000,0.000000000,0.000000000,0.000000000,0.997124837,0.015287922,0.071240818,0.020810704,0.000000000,0.000000000,0.000000000,0.000000000,0.000000000,0.000000000,0.000000000,0.000000000,0.000000000
815000000,0.000000000,0.000000000,0.000000000,0.997086321,0.015476749,0.071698188,0.020945359,0.000000000,0.000000000,0.000000000,0.000000000,0.000000000,0.000000000,0.000000000,0.000000000,0.000000000
820000000,0.000000000,0.000000000,0.000000000,0.997047508,0.015666714,0.072155752,0.021080058,0.000000000,0.000000000,0.000000000,0.000000000,0.000000000,0.000000000,0.000000000,0.000000000,0.000000000
825000000,0.000000000,0.000000000,0.000000000,0.997008395,0.015857817,0.072613509,0.021214802,0.000000000,0.000000000,0.000000000,0.000000000,0.000000000,0.000000000,0.000000000,0.000000000,0.000000000
830000000,0.000000000,0.000000000,0.000000000,0.996968983,0.016050056,0.073071458,0.021349590,0.000000000,0.000000000,0.000000000,0.000000000,0.000000000,0.000000000,0.000000000,0.000000000,0.000000000
835000000,0.000000000,0.000000000,0.000000000,0.996929270,0.016243432,0.073529599,0.021484420,0.000000000,0.000000000,0.000000000,0.000000000,0.000000000,0.000000000,0.000000000,0.000000000,0.000000000
840000000,0.000000000,0.000000000,0.000000000,0.996889255,0.016437943,0.073987932,0.021619293,0.000000000,0.000000000,0.000000000,0.000000000,0.000000000,0.000000000,0.000000000,0.000000000,0.000000000
845000000,0.000000000,0.000000000,0.000000000,0.996848937,0.016633589,0.074446456,0.021754208,0.000000000,0.000000000,0.000000000,0.000000000,0.000000000,0.000000000,0.000000000,0.000000000,0.000000000
850000000,0.000000000,0.000000000,0.000000000,0.996808316,0.016830369,0.074905170,0.021889164,0.000000000,0.000000000,0.000000000,0.000000000,0.000000000,0.000000000,0.000000000,0.000000000,0.000000000
855000000,0.000000000,0.000000000,0.000000000,0.996767390,0.017028284,0.075364075,0.022024161,0.000000000,0.000000000,0.000000000,0.000000000,0.000000000,0.000000000,0.000000000,0.000000000,0.000000000
860000000,0.000000000,0.000000000,0.000000000,0.996726159,0.017227332,0.075823170,0.022159198,0.000000000,0.000000000,0.000000000,0.000000000,0.000000000,0.000000000,0.000000000,0.000000000,0.000000000
865000000,0.000000000,0.000000000,0.000000000,0.996684621,0.017427513,0.076282454,0.022294275,0.000000000,0.000000000,0.000000000,0.000000000,0.000000000,0.000000000,0.000000000,0.000000000,0.000000000
870000000,0.000000000,0.000000000,0.000000000,0.996642776,0.017628826,0.076741927,0.022429391,0.000000000,0.000000000,0.000000000,0.000000000,0.000000000,0.000000000,0.000000000,0.000000000,0.000000000
875000000,0.000000000,0.000000000,0.000000000,0.996600623,0.017831271,0.077201588,0.022564546,0.000000000,0.000000000,0.000000000,0.000000000,0.000000000,0.000000000,0.000000000,0.000000000,0.000000000
880000000,0.000000000,0.000000000,0.000000000,0.996558161,0.018034847,0.077661437,0.022699738,0.000000000,0.000000000,0.000000000,0.000000000,0.000000000,0.000000000,0.000000000,0.000000000,0.000000000
885000000,0.000000000,0.000000000,0.000000000,0.996515388,0.018239553,0.078121473,0.022834968,0.000000000,0.000000000,0.000000000,0.000000000,0.000000000,0.000000000,0.000000000,0.000000000,0.000000000
890000000,0.000000000,0.000000000,0.000000000,0.996472304,0.018445390,0.078581697,0.022970235,0.000000000,0.000000000,0.000000000,0.000000000,0.000000000,0.000000000,0.000000000,0.000000000,0.000000000
895000000,0.000000000,0.000000000,0.000000000,0.996428908,0.018652356,0.079042106,0.023105538,0.000000000,0.000000000,0.000000000,0.000000000,0.000000000,0.000000000,0.000000000,0.000000000,0.000000000
900000000,0.000000000,0.000000000,0.000000000,0.996385199,0.018860450,0.079502702,0.023240877,0.000000000,0.000000000,0.000000000,0.000000000,0.000000000,0.000000000,0.000000000,0.000000000,0.000000000
905000000,0.000000000,0.000000000,0.000000000,0.996341176,0.019069673,0.079963483,0.023376251,0.000000000,0.000000000,0.000000000,0.000000000,0.000000000,0.000000000,0.000000000,0.000000000,0.000000000
910000000,0.000000000,0.000000000,0.000000000,0.996296839,0.019280024,0.080424449,0.023511659,0.000000000,0.000000000,0.000000000,0.000000000,0.000000000,0.000000000,0.000000000,0.000000000,0.000000000
915000000,0.000000000,0.000000000,0.000000000,0.996252185,0.019491501,0.080885600,0.023647101,0.000000000,0.000000000,0.000000000,0.000000000,0.000000000,0.000000000,0.000000000,0.000000000,0.000000000
920000000,0.000000000,0.000000000,0.000000000,0.996207214,0.019704105,0.081346935,0.023782577,0.000000000,0.000000000,0.000000000,0.000000000,0.000000000,0.000000000,0.000000000,0.000000000,0.000000000
925000000,0.000000000,0.000000000,0.000000000,0.996161926,0.019917835,0.081808453,0.023918086,0.000000000,0.000000000,0.000000000,0.000000000,0.000000000,0.000000000,0.000000000,0.000000000,0.000000000
930000000,0.000000000,0.000000000,0.000000000,0.996116318,0.020132690,0.082270154,0.024053627,0.000000000,0.000000000,0.000000000,0.000000000,0.000000000,0.000000000,0.000000000,0.000000000,0.000000000
935000000,0.000000000,0.000000000,0.000000000,0.996070391,0.020348670,0.082732038,0.024189200,0.000000000,0.000000000,0.000000000,0.000000000,0.000000000,0.000000000,0.000000000,0.000000000,0.000000000
940000000,0.000000000,0.000000000,0.000000000,0.996024143,0.020565773,0.083194104,0.024324803,0.000000000,0.000000000,0.000000000,0.000000000,0.000000000,0.000000000,0.000000000,0.000000000,0.000000000
945000000,0.000000000,0.000000000,0.000000000,0.995977574,0.020784000,0.083656351,0.024460438,0.000000000,0.000000000,0.000000000,0.000000000,0.000000000,0.000000000,0.000000000,0.000000000,0.000000000
950000000,0.000000000,0.000000000,0.000000000,0.995930681,0.021003350,0.084118780,0.024596103,0.000000000,0.000000000,0.000000000,0.000000000,0.000000000,0.000000000,0.000000000,0.000000000,0.000000000
955000000,0.000000000,0.000000000,0.000000000,0.995883465,0.021223821,0.084581389,0.024731797,0.000000000,0.000000000,0.000000000,0.000000000,0.000000000,0.000000000,0.000000000,0.000000000,0.000000000
960000000,0.000000000,0.000000000,0.000000000,0.995835924,0.021445415,0.085044179,0.024867520,0.000000000,0.000000000,0.000000000,0.000000000,0.000000000,0.000000000,0.000000000,0.000000000,0.000000000
965000000,0.000000000,0.000000000,0.000000000,0.995788058,0.021668129,0.085507148,0.025003271,0.000000000,0.000000000,0.000000000,0.000000000,0.000000000,0.000000000,0.000000000,0.000000000,0.000000000
970000000,0.000000000,0.000000000,0.000000000,0.995739865,0.021891963,0.085970296,0.025139050,0.000000000,0.000000000,0.000000000,0.000000000,0.000000000,0.000000000,0.000000000,0.000000000,0.000000000
975000000,0.000000000,0.000000000,0.000000000,0.995691344,0.022116917,0.086433622,0.025274857,0.000000000,0.000000000,0.000000000,0.000000000,0.000000000,0.000000000,0.000000000,0.000000000,0.000000000
980000000,0.000000000,0.000000000,0.000000000,0.995642495,0.022342989,0.086897127,0.025410690,0.000000000,0.000000000,0.000000000,0.000000000,0.000000000,0.000000000,0.000000000,0.000000000,0.000000000
985000000,0.000000000,0.000000000,0.000000000,0.995593315,0.022570180,0.087360809,0.025546549,0.000000000,0.000000000,0.000000000,0.000000000,0.000000000,0.000000000,0.000000000,0.000000000,0.000000000
990000000,0.000000000,0.000000000,0.000000000,0.995543806,0.022798489,0.087824669,0.025682434,0.000000000,0.000000000,0.000000000,0.000000000,0.000000000,0.000000000,0.000000000,0.000000000,0.000000000
995000000,0.000000000,0.000000000,0.000000000,0.995493964,0.023027914,0.088288705,0.025818343,0.000000000,0.000000000,0.000000000,0.000000000,0.000000000,0.000000000,0.000000000,0.000000000,0.000000000
1000000000,0.000000000,0.000000000,0.000000000,0.995443790,0.023258456,0.088752917,0.025954278,0.000000000,0.000000000,0.000000000,0.000000000,0.000000000,0.000000000,0.000000000,0.000000000,0.000000000
1005000000,0.000000000,0.000000000,0.000000000,0.995393282,0.023490113,0.089217305,0.026090236,0.000000000,0.000000000,0.000000000,0.000000000,0.000000000,0.000000000,0.000000000,0.000000000,0.000000000
1010000000,0.000000000,0.000000000,0.000000000,0.995342440,0.023722885,0.089681868,0.026226217,0.000000000,0.000000000,0.000000000,0.000000000,0.000000000,0.000000000,0.000000000,0.000000000,0.000000000
1015000000,0.000000000,0.000000000,0.000000000,0.995291262,0.023956772,0.090146605,0.026362221,0.000000000,0.000000000,0.000000000,0.000000000,0.000000000,0.000000000,0.000000000,0.000000000,0.000000000
1020000000,0.000000000,0.000000000,0.000000000,0.995239747,0.024191772,0.090611517,0.026498248,0.000000000,0.000000000,0.000000000,0.000000000,0.000000000,0.000000000,0.000000000,0.000000000,0.000000000
1024999999,0.000000000,0.000000000,0.000000000,0.995187894,0.024427885,0.091076602,0.026634296,0.000000000,0.000000000,0.000000000,0.000000000,0.000000000,0.000000000,0.000000000,0.000000000,0.000000000
1030000000,0.000000000,0.000000000,0.000000000,0.995135703,0.024665110,0.091541860,0.026770365,0.000000000,0.000000000,0.000000000,0.000000000,0.000000000,0.000000000,0.000000000,0.000000000,0.000000000
1034999999,0.000000000,0.000000000,0.000000000,0.995083172,0.024903447,0.092007290,0.026906454,0.000000000,0.000000000,0.000000000,0.000000000,0.000000000,0.000000000,0.000000000,0.000000000,0.000000000
1040000000,0.000000000,0.000000000,0.000000000,0.995030300,0.025142894,0.092472893,0.027042564,0.000000000,0.000000000,0.000000000,0.000000000,0.000000000,0.000000000,0.000000000,0.000000000,0.000000000
1044999999,0.000000000,0.000000000,0.000000000,0.994977087,0.025383452,0.092938667,0.027178693,0.000000000,0.000000000,0.000000000,0.000000000,0.000000000,0.000000000,0.000000000,0.000000000,0.000000000
1050000000,0.000000000,0.000000000,0.000000000,0.994923530,0.025625119,0.093404612,0.027314840,0.000000000,0.000000000,0.000000000,0.000000000,0.000000000,0.000000000,0.000000000,0.000000000,0.000000000
1054999999,0.000000000,0.000000000,0.000000000,0.994869630,0.025867895,0.093870728,0.027451006,0.000000000,0.000000000,0.000000000,0.000000000,0.000000000,0.000000000,0.000000000,0.000000000,0.000000000
1060000000,0.000000000,0.000000000,0.000000000,0.994815385,0.026111779,0.094337013,0.027587190,0.000000000,0.000000000,0.000000000,0.000000000,0.000000000,0.000000000,0.000000000,0.000000000,0.000000000
1065000000,0.000000000,0.000000000,0.000000000,0.994760794,0.026356770,0.094803468,0.027723391,0.000000000,0.000000000,0.000000000,0.000000000,0.000000000,0.000000000,0.000000000,0.000000000,0.000000000
1070000000,0.000000000,0.000000000,0.000000000,0.994705856,0.026602868,0.095270091,0.027859608,0.000000000,0.000000000,0.000000000,0.000000000,0.000000000,0.000000000,0.000000000,0.000000000,0.000000000
1075000000,0.000000000,0.000000000,0.000000000,0.994650570,0.026850072,0.095736883,0.027995842,0.000000000,0.000000000,0.000000000,0.000000000,0.000000000,0.000000000,0.000000000,0.000000000,0.000000000
1080000000,0.000000000,0.000000000,0.000000000,0.994594935,0.027098381,0.096203843,0.028132091,0.000000000,0.000000000,0.000000000,0.000000000,0.000000000,0.000000000,0.000000000,0.000000000,0.000000000
1085000000,0.000000000,0.000000000,0.000000000,0.994538949,0.027347795,0.096670970,0.028268355,0.000000000,0.000000000,0.000000000,0.000000000,0.000000000,0.000000000,0.000000000,0.000000000,0.000000000
1090000000,0.000000000,0.000000000,0.000000000,0.994482613,0.027598312,0.097138264,0.028404633,0.000000000,0.000000000,0.000000000,0.000000000,0.000000000,0.000000000,0.000000000,0.000000000,0.000000000
1095000000,0.000000000,0.000000000,0.000000000,0.994425925,0.027849932,0.097605724,0.028540925,0.000000000,0.000000000,0.000000000,0.000000000,0.000000000,0.000000000,0.000000000,0.000000000,0.000000000
1100000000,0.000000000,0.000000000,0.000000000,0.994368883,0.028102654,0.098073350,0.028677231,0.000000000,0.000000000,0.000000000,0.000000000,0.000000000,0.000000000,0.000000000,0.000000000,0.000000000
1105000000,0.000000000,0.000000000,0.000000000,0.994311487,0.028356478,0.098541141,0.028813549,0.000000000,0.000000000,0.000000000,0.000000000,0.000000000,0.000000000,0.000000000,0.000000000,0.000000000
1110000000,0.000000000,0.000000000,0.000000000,0.994253736,0.028611403,0.099009096,0.028949879,0.000000000,0.000000000,0.000000000,0.000000000,0.000000000,0.000000000,0.000000000,0.000000000,0.000000000
1115000000,0.000000000,0.000000000,0.000000000,0.994195628,0.028867428,0.099477216,0.029086221,0.000000000,0.000000000,0.000000000,0.000000000,0.000000000,0.000000000,0.000000000,0.000000000,0.000000000
1120000000,0.000000000,0.000000000,0.000000000,0.994137163,0.029124552,0.099945499,0.029222574,0.000000000,0.000000000,0.000000000,0.000000000,0.000000000,0.000000000,0.000000000,0.000000000,0.000000000
1125000000,0.000000000,0.000000000,0.000000000,0.994078339,0.029382775,0.100413945,0.029358938,0.000000000,0.000000000,0.000000000,0.000000000,0.000000000,0.000000000,0.000000000,0.000000000,0.000000000
1130000000,0.000000000,0.000000000,0.000000000,0.994019156,0.029642095,0.100882554,0.029495311,0.000000000,0.000000000,0.000000000,0.000000000,0.000000000,0.000000000,0.000000000,0.000000000,0.000000000
1135000000,0.000000000,0.000000000,0.000000000,0.993959613,0.029902512,0.101351324,0.029631694,0.000000000,0.000000000,0.000000000,0.000000000,0.000000000,0.000000000,0.000000000,0.000000000,0.000000000
1140000000,0.000000000,0.000000000,0.000000000,0.993899707,0.030164026,0.101820256,0.029768086,0.000000000,0.000000000,0.000000000,0.000000000,0.000000000,0.000000000,0.000000000,0.000000000,0.000000000
1145000000,0.000000000,0.000000000,0.000000000,0.993839439,0.030426635,0.102289349,0.029904485,0.000000000,0.000000000,0.000000000,0.000000000,0.000000000,0.000000000,0.000000000,0.000000000,0.000000000
1150000000,0.000000000,0.000000000,0.000000000,0.993778807,0.030690339,0.102758602,0.030040893,0.000000000,0.000000000,0.000000000,0.000000000,0.000000000,0.000000000,0.000000000,0.000000000,0.000000000
1155000000,0.000000000,0.000000000,0.000000000,0.993717810,0.030955136,0.103228014,0.030177308,0.000000000,0.000000000,0.000000000,0.000000000,0.000000000,0.000000000,0.000000000,0.000000000,0.000000000
1160000000,0.000000000,0.000000000,0.000000000,0.993656448,0.031221027,0.103697586,0.030313729,0.000000000,0.000000000,0.000000000,0.000000000,0.000000000,0.000000000,0.000000000,0.000000000,0.000000000
1165000000,0.000000000,0.000000000,0.000000000,0.993594718,0.031488010,0.104167317,0.030450157,0.000000000,0.000000000,0.000000000,0.000000000,0.000000000,0.000000000,0.000000000,0.000000000,0.000000000
1170000000,0.000000000,0.000000000,0.000000000,0.993532620,0.031756085,0.104637205,0.030586590,0.000000000,0.000000000,0.000000000,0.000000000,0.000000000,0.000000000,0.000000000,0.000000000,0.000000000
1175000000,0.000000000,0.000000000,0.000000000,0.993470153,0.032025250,0.105107251,0.030723028,0.000000000,0.000000000,0.000000000,0.000000000,0.000000000,0.000000000,0.000000000,0.000000000,0.000000000
1180000000,0.000000000,0.000000000,0.000000000,0.993407316,0.032295506,0.105577454,0.030859470,0.000000000,0.000000000,0.000000000,0.000000000,0.000000000,0.000000000,0.000000000,0.000000000,0.000000000
1185000000,0.000000000,0.000000000,0.000000000,0.993344107,0.032566850,0.106047813,0.030995916,0.000000000,0.000000000,0.000000000,0.000000000,0.000000000,0.000000000,0.000000000,0.000000000,0.000000000
1190000000,0.000000000,0.000000000,0.000000000,0.993280526,0.032839283,0.106518329,0.031132366,0.000000000,0.000000000,0.000000000,0.000000000,0.000000000,0.000000000,0.000000000,0.000000000,0.000000000
1195000000,0.000000000,0.000000000,0.000000000,0.993216571,0.033112804,0.106988999,0.031268818,0.000000000,0.000000000,0.000000000,0.000000000,0.000000000,0.000000000,0.000000000,0.000000000,0.000000000
1200000000,0.000000000,0.000000000,0.000000000,0.993152242,0.033387411,0.107459824,0.031405273,0.000000000,0.000000000,0.000000000,0.000000000,0.000000000,0.000000000,0.000000000,0.000000000,0.000000000
1205000000,0.000000000,0.000000000,0.000000000,0.993087537,0.033663105,0.107930803,0.031541729,0.000000000,0.000000000,0.000000000,0.000000000,0.000000000,0.000000000,0.000000000,0.000000000,0.000000000
1210000000,0.000000000,0.000000000,0.000000000,0.993022455,0.033939883,0.108401936,0.031678186,0.000000000,0.000000000,0.000000000,0.000000000,0.000000000,0.000000000,0.000000000,0.000000000,0.000000000
1215000000,0.000000000,0.000000000,0.000000000,0.992956996,0.034217746,0.108873222,0.031814644,0.000000000,0.000000000,0.000000000,0.000000000,0.000000000,0.000000000,0.000000000,0.000000000,0.000000000
1220000000,0.000000000,0.000000000,0.000000000,0.992891157,0.034496692,0.109344660,0.031951102,0.000000000,0.000000000,0.000000000,0.000000000,0.000000000,0.000000000,0.000000000,0.000000000,0.000000000
1225000000,0.000000000,0.000000000,0.000000000,0.992824939,0.034776721,0.109816250,0.032087560,0.000000000,0.000000000,0.000000000,0.000000000,0.000000000,0.000000000,0.000000000,0.000000000,0.000000000
1230000000,0.000000000,0.000000000,0.000000000,0.992758339,0.035057831,0.110287992,0.032224016,0.000000000,0.000000000,0.000000000,0.000000000,0.000000000,0.000000000,0.000000000,0.000000000,0.000000000
1235000000,0.000000000,0.000000000,0.000000000,0.992691357,0.035340023,0.110759884,0.032360471,0.000000000,0.000000000,0.000000000,0.000000000,0.000000000,0.000000000,0.000000000,0.000000000,0.000000000
1240000000,0.000000000,0.000000000,0.000000000,0.992623992,0.035623294,0.111231926,0.032496923,0.000000000,0.000000000,0.000000000,0.000000000,0.000000000,0.000000000,0.000000000,0.000000000,0.000000000
1245000000,0.000000000,0.000000000,0.000000000,0.992556242,0.035907645,0.111704118,0.032633373,0.000000000,0.000000000,0.000000000,0.000000000,0.000000000,0.000000000,0.000000000,0.000000000,0.000000000
1250000000,0.000000000,0.000000000,0.000000000,0.992488107,0.036193075,0.112176459,0.032769819,0.000000000,0.000000000,0.000000000,0.000000000,0.000000000,0.000000000,0.000000000,0.000000000,0.000000000
1255000000,0.000000000,0.000000000,0.000000000,0.992419585,0.036479582,0.112648948,0.032906262,0.000000000,0.000000000,0.000000000,0.000000000,0.000000000,0.000000000,0.000000000,0.000000000,0.000000000
1260000000,0.000000000,0.000000000,0.000000000,0.992350675,0.036767165,0.113121585,0.033042701,0.000000000,0.000000000,0.000000000,0.000000000,0.000000000,0.000000000,0.000000000,0.000000000,0.000000000
1265000000,0.000000000,0.000000000,0.000000000,0.992281376,0.037055825,0.113594369,0.033179134,0.000000000,0.000000000,0.000000000,0.000000000,0.000000000,0.000000000,0.000000000,0.000000000,0.000000000
1270000000,0.000000000,0.000000000,0.000000000,0.992211688,0.037345560,0.114067300,0.033315562,0.000000000,0.000000000,0.000000000,0.000000000,0.000000000,0.000000000,0.000000000,0.000000000,0.000000000
1275000000,0.000000000,0.000000000,0.000000000,0.992141608,0.037636368,0.114540377,0.033451984,0.000000000,0.000000000,0.000000000,0.000000000,0.000000000,0.000000000,0.000000000,0.000000000,0.000000000
1280000000,0.000000000,0.000000000,0.000000000,0.992071136,0.037928250,0.115013600,0.033588400,0.000000000,0.000000000,0.000000000,0.000000000,0.000000000,0.000000000,0.000000000,0.000000000,0.000000000
1285000000,0.000000000,0.000000000,0.000000000,0.992000271,0.038221205,0.115486967,0.033724808,0.000000000,0.000000000,0.000000000,0.000000000,0.000000000,0.000000000,0.000000000,0.000000000,0.000000000
1290000000,0.000000000,0.000000000,0.000000000,0.991929011,0.038515231,0.115960479,0.033861209,0.000000000,0.000000000,0.000000000,0.000000000,0.000000000,0.000000000,0.000000000,0.000000000,0.000000000
1295000000,0.000000000,0.000000000,0.000000000,0.991857356,0.038810327,0.116434135,0.033997602,0.000000000,0.000000000,0.000000000,0.000000000,0.000000000,0.000000000,0.000000000,0.000000000,0.000000000
1300000000,0.000000000,0.000000000,0.000000000,0.991785304,0.039106493,0.116907933,0.034133986,0.000000000,0.000000000,0.000000000,0.000000000,0.000000000,0.000000000,0.000000000,0.000000000,0.000000000
1305000000,0.000000000,0.000000000,0.000000000,0.991712854,0.039403728,0.117381874,0.034270361,0.000000000,0.000000000,0.000000000,0.000000000,0.000000000,0.000000000,0.000000000,0.000000000,0.000000000
1310000000,0.000000000,0.000000000,0.000000000,0.991640005,0.039702032,0.117855957,0.034406726,0.000000000,0.000000000,0.000000000,0.000000000,0.000000000,0.000000000,0.000000000,0.000000000,0.000000000
1315000000,0.000000000,0.000000000,0.000000000,0.991566756,0.040001402,0.118330181,0.034543080,0.000000000,0.000000000,0.000000000,0.000000000,0.000000000,0.000000000,0.000000000,0.000000000,0.000000000
1320000000,0.000000000,0.000000000,0.000000000,0.991493106,0.040301838,0.118804547,0.034679424,0.000000000,0.000000000,0.000000000,0.000000000,0.000000000,0.000000000,0.000000000,0.000000000,0.000000000
1325000000,0.000000000,0.000000000,0.000000000,0.991419054,0.040603339,0.119279052,0.034815757,0.000000000,0.000000000,0.000000000,0.000000000,0.000000000,0.000000000,0.000000000,0.000000000,0.000000000
1330000000,0.000000000,0.000000000,0.000000000,0.991344598,0.040905905,0.119753696,0.034952077,0.000000000,0.000000000,0.000000000,0.000000000,0.000000000,0.000000000,0.000000000,0.000000000,0.000000000
1335000000,0.000000000,0.000000000,0.000000000,0.991269737,0.041209535,0.120228480,0.035088385,0.000000000,0.000000000,0.000000000,0.000000000,0.000000000,0.000000000,0.000000000,0.000000000,0.000000000
1340000000,0.000000000,0.000000000,0.000000000,0.991194471,0.041514226,0.120703402,0.035224680,0.000000000,0.000000000,0.000000000,0.000000000,0.000000000,0.000000000,0.000000000,0.000000000,0.000000000
1345000000,0.000000000,0.000000000,0.000000000,0.991118798,0.041819980,0.121178462,0.035360961,0.000000000,0.000000000,0.000000000,0.000000000,0.000000000,0.000000000,0.000000000,0.000000000,0.000000000
1350000000,0.000000000,0.000000000,0.000000000,0.991042717,0.042126794,0.121653658,0.035497229,0.000000000,0.000000000,0.000000000,0.000000000,0.000000000,0.000000000,0.000000000,0.000000000,0.000000000
1355000000,0.000000000,0.000000000,0.000000000,0.990966227,0.042434667,0.122128992,0.035633481,0.000000000,0.000000000,0.000000000,0.000000000,0.000000000,0.000000000,0.000000000,0.000000000,0.000000000
1360000000,0.000000000,0.000000000,0.000000000,0.990889327,0.042743600,0.122604461,0.035769719,0.000000000,0.000000000,0.000000000,0.000000000,0.000000000,0.000000000,0.000000000,0.000000000,0.000000000
1365000000,0.000000000,0.000000000,0.000000000,0.990812015,0.043053590,0.123080065,0.035905941,0.000000000,0.000000000,0.000000000,0.000000000,0.000000000,0.000000000,0.000000000,0.000000000,0.000000000
1370000000,0.000000000,0.000000000,0.000000000,0.990734291,0.043364638,0.123555804,0.036042146,0.000000000,0.000000000,0.000000000,0.000000000,0.000000000,0.000000000,0.000000000,0.000000000,0.000000000
1375000000,0.000000000,0.000000000,0.000000000,0.990656153,0.043676741,0.124031677,0.036178335,0.000000000,0.000000000,0.000000000,0.000000000,0.000000000,0.000000000,0.000000000,0.000000000,0.000000000
1380000000,0.000000000,0.000000000,0.000000000,0.990577600,0.043989900,0.124507684,0.036314506,0.000000000,0.000000000,0.000000000,0.000000000,0.000000000,0.000000000,0.000000000,0.000000000,0.000000000
1385000000,0.000000000,0.000000000,0.000000000,0.990498632,0.044304112,0.124983823,0.036450660,0.000000000,0.000000000,0.000000000,0.000000000,0.000000000,0.000000000,0.000000000,0.000000000,0.000000000
1390000000,0.000000000,0.000000000,0.000000000,0.990419246,0.044619378,0.125460095,0.036586795,0.000000000,0.000000000,0.000000000,0.000000000,0.000000000,0.000000000,0.000000000,0.000000000,0.000000000
1395000000,0.000000000,0.000000000,0.000000000,0.990339442,0.044935695,0.125936498,0.036722911,0.000000000,0.000000000,0.000000000,0.000000000,0.000000000,0.000000000,0.000000000,0.000000000,0.000000000
1400000000,0.000000000,0.000000000,0.000000000,0.990259218,0.045253064,0.126413031,0.036859008,0.000000000,0.000000000,0.000000000,0.000000000,0.000000000,0.000000000,0.000000000,0.000000000,0.000000000
1405000000,0.000000000,0.000000000,0.000000000,0.990178574,0.045571483,0.126889696,0.036995085,0.000000000,0.000000000,0.000000000,0.000000000,0.000000000,0.000000000,0.000000000,0.000000000,0.000000000
1410000000,0.000000000,0.000000000,0.000000000,0.990097508,0.045890952,0.127366490,0.037131141,0.000000000,0.000000000,0.000000000,0.000000000,0.000000000,0.000000000,0.000000000,0.000000000,0.000000000
1415000000,0.000000000,0.000000000,0.000000000,0.990016020,0.046211469,0.127843412,0.037267176,0.000000000,0.000000000,0.000000000,0.000000000,0.000000000,0.000000000,0.000000000,0.000000000,0.000000000
1420000000,0.000000000,0.000000000,0.000000000,0.989934107,0.046533033,0.128320464,0.037403190,0.000000000,0.000000000,0.000000000,0.000000000,0.000000000,0.000000000,0.000000000,0.000000000,0.000000000
1425000000,0.000000000,0.000000000,0.000000000,0.989851770,0.046855643,0.128797643,0.037539182,0.000000000,0.000000000,0.000000000,0.000000000,0.000000000,0.000000000,0.000000000,0.000000000,0.000000000
1430000000,0.000000000,0.000000000,0.000000000,0.989769006,0.047179299,0.129274949,0.037675150,0.000000000,0.000000000,0.000000000,0.000000000,0.000000000,0.000000000,0.000000000,0.000000000,0.000000000
1435000000,0.000000000,0.000000000,0.000000000,0.989685814,0.047503999,0.129752382,0.037811096,0.000000000,0.000000000,0.000000000,0.000000000,0.000000000,0.000000000,0.000000000,0.000000000,0.000000000
1440000000,0.000000000,0.000000000,0.000000000,0.989602194,0.047829742,0.130229941,0.037947018,0.000000000,0.000000000,0.000000000,0.000000000,0.000000000,0.000000000,0.000000000,0.000000000,0.000000000
1445000000,0.000000000,0.000000000,0.000000000,0.989518144,0.048156528,0.130707624,0.038082916,0.000000000,0.000000000,0.000000000,0.000000000,0.000000000,0.000000000,0.000000000,0.000000000,0.000000000
1450000000,0.000000000,0.000000000,0.000000000,0.989433663,0.048484355,0.131185433,0.038218789,0.000000000,0.000000000,0.000000000,0.000000000,0.000000000,0.000000000,0.000000000,0.000000000,0.000000000
1455000000,0.000000000,0.000000000,0.000000000,0.989348750,0.048813223,0.131663365,0.038354636,0.000000000,0.000000000,0.000000000,0.000000000,0.000000000,0.000000000,0.000000000,0.000000000,0.000000000
1460000000,0.000000000,0.000000000,0.000000000,0.989263404,0.049143130,0.132141421,0.038490458,0.000000000,0.000000000,0.000000000,0.000000000,0.000000000,0.000000000,0.000000000,0.000000000,0.000000000
1465000000,0.000000000,0.000000000,0.000000000,0.989177623,0.049474075,0.132619599,0.038626254,0.000000000,0.000000000,0.000000000,0.000000000,0.000000000,0.000000000,0.000000000,0.000000000,0.000000000
1470000000,0.000000000,0.000000000,0.000000000,0.989091407,0.049806058,0.133097900,0.038762022,0.000000000,0.000000000,0.000000000,0.000000000,0.000000000,0.000000000,0.000000000,0.000000000,0.000000000
1475000000,0.000000000,0.000000000,0.000000000,0.989004754,0.050139076,0.133576322,0.038897764,0.000000000,0.000000000,0.000000000,0.000000000,0.000000000,0.000000000,0.000000000,0.000000000,0.000000000
1480000000,0.000000000,0.000000000,0.000000000,0.988917663,0.050473130,0.134054864,0.039033477,0.000000000,0.000000000,0.000000000,0.000000000,0.000000000,0.000000000,0.000000000,0.000000000,0.000000000
1485000000,0.000000000,0.000000000,0.000000000,0.988830133,0.050808219,0.134533527,0.039169162,0.000000000,0.000000000,0.000000000,0.000000000,0.000000000,0.000000000,0.000000000,0.000000000,0.000000000
1490000000,0.000000000,0.000000000,0.000000000,0.988742163,0.051144340,0.135012308,0.039304817,0.000000000,0.000000000,0.000000000,0.000000000,0.000000000,0.000000000,0.000000000,0.000000000,0.000000000
1495000000,0.000000000,0.000000000,0.000000000,0.988653751,0.051481494,0.135491209,0.039440444,0.000000000,0.000000000,0.000000000,0.000000000,0.000000000,0.000000000,0.000000000,0.000000000,0.000000000
1500000000,0.000000000,0.000000000,0.000000000,0.988564897,0.051819679,0.135970228,0.039576040,0.000000000,0.000000000,0.000000000,0.000000000,0.000000000,0.000000000,0.000000000,0.000000000,0.000000000
1505000000,0.000000000,0.000000000,0.000000000,0.988475599,0.052158894,0.136449364,0.039711606,0.000000000,0.000000000,0.000000000,0.000000000,0.000000000,0.000000000,0.000000000,0.000000000,0.000000000
1510000000,0.000000000,0.000000000,0.000000000,0.988385856,0.052499138,0.136928617,0.039847140,0.000000000,0.000000000,0.000000000,0.000000000,0.000000000,0.000000000,0.000000000,0.000000000,0.000000000
1515000000,0.000000000,0.000000000,0.000000000,0.988295667,0.052840410,0.137407986,0.039982643,0.000000000,0.000000000,0.000000000,0.000000000,0.000000000,0.000000000,0.000000000,0.000000000,0.000000000
1520000000,0.000000000,0.000000000,0.000000000,0.988205030,0.053182709,0.137887471,0.040118114,0.000000000,0.000000000,0.000000000,0.000000000,0.000000000,0.000000000,0.000000000,0.000000000,0.000000000
1525000000,0.000000000,0.000000000,0.000000000,0.988113945,0.053526034,0.138367070,0.040253553,0.000000000,0.000000000,0.000000000,0.000000000,0.000000000,0.000000000,0.000000000,0.000000000,0.000000000
1530000000,0.000000000,0.000000000,0.000000000,0.988022411,0.053870383,0.138846784,0.040388958,0.000000000,0.000000000,0.000000000,0.000000000,0.000000000,0.000000000,0.000000000,0.000000000,0.000000000
1535000000,0.000000000,0.000000000,0.000000000,0.987930426,0.054215757,0.139326611,0.040524329,0.000000000,0.000000000,0.000000000,0.000000000,0.000000000,0.000000000,0.000000000,0.000000000,0.000000000
1540000000,0.000000000,0.000000000,0.000000000,0.987837988,0.054562153,0.139806550,0.040659666,0.000000000,0.000000000,0.000000000,0.000000000,0.000000000,0.000000000,0.000000000,0.000000000,0.000000000
1545000000,0.000000000,0.000000000,0.000000000,0.987745098,0.054909570,0.140286602,0.040794969,0.000000000,0.000000000,0.000000000,0.000000000,0.000000000,0.000000000,0.000000000,0.000000000,0.000000000
1550000000,0.000000000,0.000000000,0.000000000,0.987651753,0.055258009,0.140766766,0.040930236,0.000000000,0.000000000,0.000000000,0.000000000,0.000000000,0.000000000,0.000000000,0.000000000,0.000000000
1555000000,0.000000000,0.000000000,0.000000000,0.987557953,0.055607466,0.141247040,0.041065467,0.000000000,0.000000000,0.000000000,0.000000000,0.000000000,0.000000000,0.000000000,0.000000000,0.000000000
1560000000,0.000000000,0.000000000,0.000000000,0.987463696,0.055957942,0.141727424,0.041200662,0.000000000,0.000000000,0.000000000,0.000000000,0.000000000,0.000000000,0.000000000,0.000000000,0.000000000
1565000000,0.000000000,0.000000000,0.000000000,0.987368981,0.056309435,0.142207917,0.041335821,0.000000000,0.000000000,0.000000000,0.000000000,0.000000000,0.000000000,0.000000000,0.000000000,0.000000000
1570000000,0.000000000,0.000000000,0.000000000,0.987273808,0.056661945,0.142688520,0.041470942,0.000000000,0.000000000,0.000000000,0.000000000,0.000000000,0.000000000,0.000000000,0.000000000,0.000000000
1575000000,0.000000000,0.000000000,0.000000000,0.987178174,0.057015469,0.143169230,0.041606025,0.000000000,0.000000000,0.000000000,0.000000000,0.000000000,0.000000000,0.000000000,0.000000000,0.000000000
1580000000,0.000000000,0.000000000,0.000000000,0.987082078,0.057370008,0.143650048,0.041741070,0.000000000,0.000000000,0.000000000,0.000000000,0.000000000,0.000000000,0.000000000,0.000000000,0.000000000
1585000000,0.000000000,0.000000000,0.000000000,0.986985520,0.057725559,0.144130972,0.041876076,0.000000000,0.000000000,0.000000000,0.000000000,0.000000000,0.000000000,0.000000000,0.000000000,0.000000000
1590000000,0.000000000,0.000000000,0.000000000,0.986888498,0.058082122,0.144612003,0.042011042,0.000000000,0.000000000,0.000000000,0.000000000,0.000000000,0.000000000,0.000000000,0.000000000,0.000000000
1595000000,0.000000000,0.000000000,0.000000000,0.986791011,0.058439696,0.145093139,0.042145969,0.000000000,0.000000000,0.000000000,0.000000000,0.000000000,0.000000000,0.000000000,0.000000000,0.000000000
1600000000,0.000000000,0.000000000,0.000000000,0.986693059,0.058798279,0.145574379,0.042280855,0.000000000,0.000000000,0.000000000,0.000000000,0.000000000,0.000000000,0.000000000,0.000000000,0.000000000
1605000000,0.000000000,0.000000000,0.000000000,0.986594638,0.059157871,0.146055723,0.042415700,0.000000000,0.000000000,0.000000000,0.000000000,0.000000000,0.000000000,0.000000000,0.000000000,0.000000000
1610000000,0.000000000,0.000000000,0.000000000,0.986495750,0.059518470,0.146537171,0.042550504,0.000000000,0.000000000,0.000000000,0.000000000,0.000000000,0.000000000,0.000000000,0.000000000,0.000000000
1615000000,0.000000000,0.000000000,0.000000000,0.986396391,0.059880075,0.147018721,0.042685266,0.000000000,0.000000000,0.000000000,0.000000000,0.000000000,0.000000000,0.000000000,0.000000000,0.000000000
1620000000,0.000000000,0.000000000,0.000000000,0.986296562,0.060242685,0.147500373,0.042819986,0.000000000,0.000000000,0.000000000,0.000000000,0.000000000,0.000000000,0.000000000,0.000000000,0.000000000
1625000000,0.000000000,0.000000000,0.000000000,0.986196260,0.060606299,0.147982126,0.042954662,0.000000000,0.000000000,0.000000000,0.000000000,0.000000000,0.000000000,0.000000000,0.000000000,0.000000000
1630000000,0.000000000,0.000000000,0.000000000,0.986095486,0.060970916,0.148463980,0.043089295,0.000000000,0.000000000,0.000000000,0.000000000,0.000000000,0.000000000,0.000000000,0.000000000,0.000000000
1635000000,0.000000000,0.000000000,0.000000000,0.985994236,0.061336534,0.148945934,0.043223884,0.000000000,0.000000000,0.000000000,0.000000000,0.000000000,0.000000000,0.000000000,0.000000000,0.000000000
1640000000,0.000000000,0.000000000,0.000000000,0.985892512,0.061703153,0.149427986,0.043358429,0.000000000,0.000000000,0.000000000,0.000000000,0.000000000,0.000000000,0.000000000,0.000000000,0.000000000
1645000000,0.000000000,0.000000000,0.000000000,0.985790310,0.062070771,0.149910137,0.043492928,0.000000000,0.000000000,0.000000000,0.000000000,0.000000000,0.000000000,0.000000000,0.000000000,0.000000000
1650000000,0.000000000,0.000000000,0.000000000,0.985687630,0.062439388,0.150392385,0.043627382,0.000000000,0.000000000,0.000000000,0.000000000,0.000000000,0.000000000,0.000000000,0.000000000,0.000000000
1655000000,0.000000000,0.000000000,0.000000000,0.985584472,0.062809001,0.150874731,0.043761790,0.000000000,0.000000000,0.000000000,0.000000000,0.000000000,0.000000000,0.000000000,0.000000000,0.000000000
1660000000,0.000000000,0.000000000,0.000000000,0.985480832,0.063179610,0.151357172,0.043896152,0.000000000,0.000000000,0.000000000,0.000000000,0.000000000,0.000000000,0.000000000,0.000000000,0.000000000
1665000000,0.000000000,0.000000000,0.000000000,0.985376712,0.063551214,0.151839710,0.044030466,0.000000000,0.000000000,0.000000000,0.000000000,0.000000000,0.000000000,0.000000000,0.000000000,0.000000000
1670000000,0.000000000,0.000000000,0.000000000,0.985272108,0.063923811,0.152322342,0.044164733,0.000000000,0.000000000,0.000000000,0.000000000,0.000000000,0.000000000,0.000000000,0.000000000,0.000000000
1675000000,0.000000000,0.000000000,0.000000000,0.985167021,0.064297400,0.152805068,0.044298952,0.000000000,0.000000000,0.000000000,0.000000000,0.000000000,0.000000000,0.000000000,0.000000000,0.000000000
1680000000,0.000000000,0.000000000,0.000000000,0.985061448,0.064671981,0.153287887,0.044433122,0.000000000,0.000000000,0.000000000,0.000000000,0.000000000,0.000000000,0.000000000,0.000000000,0.000000000
1685000000,0.000000000,0.000000000,0.000000000,0.984955389,0.065047552,0.153770800,0.044567243,0.000000000,0.000000000,0.000000000,0.000000000,0.000000000,0.000000000,0.000000000,0.000000000,0.000000000
1690000000,0.000000000,0.000000000,0.000000000,0.984848842,0.065424111,0.154253804,0.044701315,0.000000000,0.000000000,0.000000000,0.000000000,0.000000000,0.000000000,0.000000000,0.000000000,0.000000000
1695000000,0.000000000,0.000000000,0.000000000,0.984741807,0.065801658,0.154736899,0.044835336,0.000000000,0.000000000,0.000000000,0.000000000,0.000000000,0.000000000,0.000000000,0.000000000,0.000000000
1700000000,0.000000000,0.000000000,0.000000000,0.984634282,0.066180191,0.155220085,0.044969308,0.000000000,0.000000000,0.000000000,0.000000000,0.000000000,0.000000000,0.000000000,0.000000000,0.000000000
1705000000,0.000000000,0.000000000,0.000000000,0.984526265,0.066559710,0.155703361,0.045103227,0.000000000,0.000000000,0.000000000,0.000000000,0.000000000,0.000000000,0.000000000,0.000000000,0.000000000
1710000000,0.000000000,0.000000000,0.000000000,0.984417757,0.066940212,0.156186726,0.045237096,0.000000000,0.000000000,0.000000000,0.000000000,0.000000000,0.000000000,0.000000000,0.000000000,0.000000000
1715000000,0.000000000,0.000000000,0.000000000,0.984308755,0.067321698,0.156670179,0.045370912,0.000000000,0.000000000,0.000000000,0.000000000,0.000000000,0.000000000,0.000000000,0.000000000,0.000000000
1720000000,0.000000000,0.000000000,0.000000000,0.984199258,0.067704164,0.157153719,0.045504676,0.000000000,0.000000000,0.000000000,0.000000000,0.000000000,0.000000000,0.000000000,0.000000000,0.000000000
1725000000,0.000000000,0.000000000,0.000000000,0.984089265,0.068087612,0.157637347,0.045638387,0.000000000,0.000000000,0.000000000,0.000000000,0.000000000,0.000000000,0.000000000,0.000000000,0.000000000
1730000000,0.000000000,0.000000000,0.000000000,0.983978775,0.068472038,0.158121061,0.045772044,0.000000000,0.000000000,0.000000000,0.000000000,0.000000000,0.000000000,0.000000000,0.000000000,0.000000000
1735000000,0.000000000,0.000000000,0.000000000,0.983867787,0.068857442,0.158604860,0.045905647,0.000000000,0.000000000,0.000000000,0.000000000,0.000000000,0.000000000,0.000000000,0.000000000,0.000000000
1740000000,0.000000000,0.000000000,0.000000000,0.983756300,0.069243823,0.159088744,0.046039195,0.000000000,0.000000000,0.000000000,0.000000000,0.000000000,0.000000000,0.000000000,0.000000000,0.000000000
1745000000,0.000000000,0.000000000,0.000000000,0.983644311,0.069631179,0.159572712,0.046172689,0.000000000,0.000000000,0.000000000,0.000000000,0.000000000,0.000000000,0.000000000,0.000000000,0.000000000
1750000000,0.000000000,0.000000000,0.000000000,0.983531821,0.070019510,0.160056763,0.046306127,0.000000000,0.000000000,0.000000000,0.000000000,0.000000000,0.000000000,0.000000000,0.000000000,0.000000000
1755000000,0.000000000,0.000000000,0.000000000,0.983418828,0.070408814,0.160540896,0.046439509,0.000000000,0.000000000,0.000000000,0.000000000,0.000000000,0.000000000,0.000000000,0.000000000,0.000000000
1760000000,0.000000000,0.000000000,0.000000000,0.983305331,0.070799089,0.161025112,0.046572834,0.000000000,0.000000000,0.000000000,0.000000000,0.000000000,0.000000000,0.000000000,0.000000000,0.000000000
1765000000,0.000000000,0.000000000,0.000000000,0.983191328,0.071190335,0.161509408,0.046706103,0.000000000,0.000000000,0.000000000,0.000000000,0.000000000,0.000000000,0.000000000,0.000000000,0.000000000
1770000000,0.000000000,0.000000000,0.000000000,0.983076818,0.071582550,0.161993785,0.046839313,0.000000000,0.000000000,0.000000000,0.000000000,0.000000000,0.000000000,0.000000000,0.000000000,0.000000000
1775000000,0.000000000,0.000000000,0.000000000,0.982961801,0.071975733,0.162478241,0.046972466,0.000000000,0.000000000,0.000000000,0.000000000,0.000000000,0.000000000,0.000000000,0.000000000,0.000000000
1780000000,0.000000000,0.000000000,0.000000000,0.982846275,0.072369883,0.162962775,0.047105560,0.000000000,0.000000000,0.000000000,0.000000000,0.000000000,0.000000000,0.000000000,0.000000000,0.000000000
1785000000,0.000000000,0.000000000,0.000000000,0.982730238,0.072764998,0.163447388,0.047238596,0.000000000,0.000000000,0.000000000,0.000000000,0.000000000,0.000000000,0.000000000,0.000000000,0.000000000
1790000000,0.000000000,0.000000000,0.000000000,0.982613690,0.073161077,0.163932078,0.047371572,0.000000000,0.000000000,0.000000000,0.000000000,0.000000000,0.000000000,0.000000000,0.000000000,0.000000000
1795000000,0.000000000,0.000000000,0.000000000,0.982496630,0.073558120,0.164416845,0.047504487,0.000000000,0.000000000,0.000000000,0.000000000,0.000000000,0.000000000,0.000000000,0.000000000,0.000000000
1800000000,0.000000000,0.000000000,0.000000000,0.982379056,0.073956124,0.164901687,0.047637343,0.000000000,0.000000000,0.000000000,0.000000000,0.000000000,0.000000000,0.000000000,0.000000000,0.000000000
1805000000,0.000000000,0.000000000,0.000000000,0.982260966,0.074355089,0.165386604,0.047770137,0.000000000,0.000000000,0.000000000,0.000000000,0.000000000,0.000000000,0.000000000,0.000000000,0.000000000
1810000000,0.000000000,0.000000000,0.000000000,0.982142361,0.074755012,0.165871596,0.047902870,0.000000000,0.000000000,0.000000000,0.000000000,0.000000000,0.000000000,0.000000000,0.000000000,0.000000000
1815000000,0.000000000,0.000000000,0.000000000,0.982023238,0.075155894,0.166356661,0.048035541,0.000000000,0.000000000,0.000000000,0.000000000,0.000000000,0.000000000,0.000000000,0.000000000,0.000000000
1820000000,0.000000000,0.000000000,0.000000000,0.981903596,0.075557732,0.166841799,0.048168150,0.000000000,0.000000000,0.000000000,0.000000000,0.000000000,0.000000000,0.000000000,0.000000000,0.000000000
1825000000,0.000000000,0.000000000,0.000000000,0.981783435,0.075960525,0.167327008,0.048300696,0.000000000,0.000000000,0.000000000,0.000000000,0.000000000,0.000000000,0.000000000,0.000000000,0.000000000
1830000000,0.000000000,0.000000000,0.000000000,0.981662753,0.076364273,0.167812289,0.048433178,0.000000000,0.000000000,0.000000000,0.000000000,0.000000000,0.000000000,0.000000000,0.000000000,0.000000000
1835000000,0.000000000,0.000000000,0.000000000,0.981541549,0.076768973,0.168297640,0.048565597,0.000000000,0.000000000,0.000000000,0.000000000,0.000000000,0.000000000,0.000000000,0.000000000,0.000000000
1840000000,0.000000000,0.000000000,0.000000000,0.981419821,0.077174624,0.168783061,0.048697951,0.000000000,0.000000000,0.000000000,0.000000000,0.000000000,0.000000000,0.000000000,0.000000000,0.000000000
1845000000,0.000000000,0.000000000,0.000000000,0.981297569,0.077581226,0.169268551,0.048830240,0.000000000,0.000000000,0.000000000,0.000000000,0.000000000,0.000000000,0.000000000,0.000000000,0.000000000
1850000000,0.000000000,0.000000000,0.000000000,0.981174791,0.077988776,0.169754109,0.048962464,0.000000000,0.000000000,0.000000000,0.000000000,0.000000000,0.000000000,0.000000000,0.000000000,0.000000000
1855000000,0.000000000,0.000000000,0.000000000,0.981051486,0.078397274,0.170239735,0.049094622,0.000000000,0.000000000,0.000000000,0.000000000,0.000000000,0.000000000,0.000000000,0.000000000,0.000000000
1860000000,0.000000000,0.000000000,0.000000000,0.980927653,0.078806717,0.170725426,0.049226714,0.000000000,0.000000000,0.000000000,0.000000000,0.000000000,0.000000000,0.000000000,0.000000000,0.000000000
1865000000,0.000000000,0.000000000,0.000000000,0.980803291,0.079217106,0.171211184,0.049358740,0.000000000,0.000000000,0.000000000,0.000000000,0.000000000,0.000000000,0.000000000,0.000000000,0.000000000
1870000000,0.000000000,0.000000000,0.000000000,0.980678398,0.079628438,0.171697007,0.049490698,0.000000000,0.000000000,0.000000000,0.000000000,0.000000000,0.000000000,0.000000000,0.000000000,0.000000000
1875000000,0.000000000,0.000000000,0.000000000,0.980552974,0.080040712,0.172182894,0.049622588,0.000000000,0.000000000,0.000000000,0.000000000,0.000000000,0.000000000,0.000000000,0.000000000,0.000000000
1880000000,0.000000000,0.000000000,0.000000000,0.980427016,0.080453927,0.172668844,0.049754410,0.000000000,0.000000000,0.000000000,0.000000000,0.000000000,0.000000000,0.000000000,0.000000000,0.000000000
1885000000,0.000000000,0.000000000,0.000000000,0.980300525,0.080868082,0.173154858,0.049886163,0.000000000,0.000000000,0.000000000,0.000000000,0.000000000,0.000000000,0.000000000,0.000000000,0.000000000
1890000000,0.000000000,0.000000000,0.000000000,0.980173498,0.081283175,0.173640933,0.050017848,0.000000000,0.000000000,0.000000000,0.000000000,0.000000000,0.000000000,0.000000000,0.000000000,0.000000000
1895000000,0.000000000,0.000000000,0.000000000,0.980045935,0.081699204,0.174127069,0.050149462,0.000000000,0.000000000,0.000000000,0.000000000,0.000000000,0.000000000,0.000000000,0.000000000,0.000000000
1900000000,0.000000000,0.000000000,0.000000000,0.979917835,0.082116169,0.174613265,0.050281007,0.000000000,0.000000000,0.000000000,0.000000000,0.000000000,0.000000000,0.000000000,0.000000000,0.000000000
1905000000,0.000000000,0.000000000,0.000000000,0.979789195,0.082534068,0.175099521,0.050412481,0.000000000,0.000000000,0.000000000,0.000000000,0.000000000,0.000000000,0.000000000,0.000000000,0.000000000
1910000000,0.000000000,0.000000000,0.000000000,0.979660016,0.082952900,0.175585836,0.050543884,0.000000000,0.000000000,0.000000000,0.000000000,0.000000000,0.000000000,0.000000000,0.000000000,0.000000000
1915000000,0.000000000,0.000000000,0.000000000,0.979530295,0.083372663,0.176072209,0.050675215,0.000000000,0.000000000,0.000000000,0.000000000,0.000000000,0.000000000,0.000000000,0.000000000,0.000000000
1920000000,0.000000000,0.000000000,0.000000000,0.979400032,0.083793356,0.176558639,0.050806475,0.000000000,0.000000000,0.000000000,0.000000000,0.000000000,0.000000000,0.000000000,0.000000000,0.000000000
1925000000,0.000000000,0.000000000,0.000000000,0.979269225,0.084214978,0.177045125,0.050937662,0.000000000,0.000000000,0.000000000,0.000000000,0.000000000,0.000000000,0.000000000,0.000000000,0.000000000
1930000000,0.000000000,0.000000000,0.000000000,0.979137874,0.084637527,0.177531667,0.051068776,0.000000000,0.000000000,0.000000000,0.000000000,0.000000000,0.000000000,0.000000000,0.000000000,0.000000000
1935000000,0.000000000,0.000000000,0.000000000,0.979005977,0.085061002,0.178018264,0.051199817,0.000000000,0.000000000,0.000000000,0.000000000,0.000000000,0.000000000,0.000000000,0.000000000,0.000000000
1940000000,0.000000000,0.000000000,0.000000000,0.978873532,0.085485402,0.178504915,0.051330784,0.000000000,0.000000000,0.000000000,0.000000000,0.000000000,0.000000000,0.000000000,0.000000000,0.000000000
1945000000,0.000000000,0.000000000,0.000000000,0.978740540,0.085910724,0.178991619,0.051461676,0.000000000,0.000000000,0.000000000,0.000000000,0.000000000,0.000000000,0.000000000,0.000000000,0.000000000
1950000000,0.000000000,0.000000000,0.000000000,0.978606997,0.086336969,0.179478375,0.051592494,0.000000000,0.000000000,0.000000000,0.000000000,0.000000000,0.000000000,0.000000000,0.000000000,0.000000000
1955000000,0.000000000,0.000000000,0.000000000,0.978472905,0.086764134,0.179965183,0.051723236,0.000000000,0.000000000,0.000000000,0.000000000,0.000000000,0.000000000,0.000000000,0.000000000,0.000000000
1960000000,0.000000000,0.000000000,0.000000000,0.978338260,0.087192217,0.180452042,0.051853903,0.000000000,0.000000000,0.000000000,0.000000000,0.000000000,0.000000000,0.000000000,0.000000000,0.000000000
1965000000,0.000000000,0.000000000,0.000000000,0.978203062,0.087621219,0.180938950,0.051984494,0.000000000,0.000000000,0.000000000,0.000000000,0.000000000,0.000000000,0.000000000,0.000000000,0.000000000
1970000000,0.000000000,0.000000000,0.000000000,0.978067310,0.088051136,0.181425908,0.052115008,0.000000000,0.000000000,0.000000000,0.000000000,0.000000000,0.000000000,0.000000000,0.000000000,0.000000000
1975000000,0.000000000,0.000000000,0.000000000,0.977931003,0.088481969,0.181912914,0.052245444,0.000000000,0.000000000,0.000000000,0.000000000,0.000000000,0.000000000,0.000000000,0.000000000,0.000000000
1980000000,0.000000000,0.000000000,0.000000000,0.977794139,0.088913714,0.182399968,0.052375804,0.000000000,0.000000000,0.000000000,0.000000000,0.000000000,0.000000000,0.000000000,0.000000000,0.000000000
1985000000,0.000000000,0.000000000,0.000000000,0.977656717,0.089346372,0.182887068,0.052506085,0.000000000,0.000000000,0.000000000,0.000000000,0.000000000,0.000000000,0.000000000,0.000000000,0.000000000
1990000000,0.000000000,0.000000000,0.000000000,0.977518737,0.089779940,0.183374215,0.052636288,0.000000000,0.000000000,0.000000000,0.000000000,0.000000000,0.000000000,0.000000000,0.000000000,0.000000000
1995000000,0.000000000,0.000000000,0.000000000,0.977380196,0.090214418,0.183861406,0.052766411,0.000000000,0.000000000,0.000000000,0.000000000,0.000000000,0.000000000,0.000000000,0.000000000,0.000000000
2000000000,0.000000000,0.000000000,0.000000000,0.977241094,0.090649803,0.184348642,0.052896456,0.000000000,0.000000000,0.000000000,0.000000000,0.000000000,0.000000000,0.000000000,0.000000000,0.000000000
2005000000,0.000000000,0.000000000,0.000000000,0.977101430,0.091086094,0.184835921,0.053026420,0.000000000,0.000000000,0.000000000,0.000000000,0.000000000,0.000000000,0.000000000,0.000000000,0.000000000
2010000000,0.000000000,0.000000000,0.000000000,0.976961202,0.091523290,0.185323243,0.053156304,0.000000000,0.000000000,0.000000000,0.000000000,0.000000000,0.000000000,0.000000000,0.000000000,0.000000000
2015000000,0.000000000,0.000000000,0.000000000,0.976820409,0.091961389,0.185810606,0.053286108,0.000000000,0.000000000,0.000000000,0.000000000,0.000000000,0.000000000,0.000000000,0.000000000,0.000000000
2020000000,0.000000000,0.000000000,0.000000000,0.976679051,0.092400391,0.186298011,0.053415830,0.000000000,0.000000000,0.000000000,0.000000000,0.000000000,0.000000000,0.000000000,0.000000000,0.000000000
2025000000,0.000000000,0.000000000,0.000000000,0.976537125,0.092840293,0.186785455,0.053545470,0.000000000,0.000000000,0.000000000,0.000000000,0.000000000,0.000000000,0.000000000,0.000000000,0.000000000
2030000000,0.000000000,0.000000000,0.000000000,0.976394631,0.093281094,0.187272940,0.053675029,0.000000000,0.000000000,0.000000000,0.000000000,0.000000000,0.000000000,0.000000000,0.000000000,0.000000000
2035000000,0.000000000,0.000000000,0.000000000,0.976251567,0.093722792,0.187760462,0.053804504,0.000000000,0.000000000,0.000000000,0.000000000,0.000000000,0.000000000,0.000000000,0.000000000,0.000000000
2040000000,0.000000000,0.000000000,0.000000000,0.976107933,0.094165387,0.188248022,0.053933897,0.000000000,0.000000000,0.000000000,0.000000000,0.000000000,0.000000000,0.000000000,0.000000000,0.000000000
2045000000,0.000000000,0.000000000,0.000000000,0.975963727,0.094608876,0.188735619,0.054063206,0.000000000,0.000000000,0.000000000,0.000000000,0.000000000,0.000000000,0.000000000,0.000000000,0.000000000
2049999999,0.000000000,0.000000000,0.000000000,0.975818948,0.095053259,0.189223253,0.054192431,0.000000000,0.000000000,0.000000000,0.000000000,0.000000000,0.000000000,0.000000000,0.000000000,0.000000000
2055000000,0.000000000,0.000000000,0.000000000,0.975673595,0.095498534,0.189710921,0.054321572,0.000000000,0.000000000,0.000000000,0.000000000,0.000000000,0.000000000,0.000000000,0.000000000,0.000000000
2060000000,0.000000000,0.000000000,0.000000000,0.975527666,0.095944698,0.190198624,0.054450628,0.000000000,0.000000000,0.000000000,0.000000000,0.000000000,0.000000000,0.000000000,0.000000000,0.000000000
2065000000,0.000000000,0.000000000,0.000000000,0.975381161,0.096391752,0.190686360,0.054579598,0.000000000,0.000000000,0.000000000,0.000000000,0.000000000,0.000000000,0.000000000,0.000000000,0.000000000
2069999999,0.000000000,0.000000000,0.000000000,0.975234079,0.096839693,0.191174128,0.054708483,0.000000000,0.000000000,0.000000000,0.000000000,0.000000000,0.000000000,0.000000000,0.000000000,0.000000000
2075000000,0.000000000,0.000000000,0.000000000,0.975086417,0.097288520,0.191661929,0.054837282,0.000000000,0.000000000,0.000000000,0.000000000,0.000000000,0.000000000,0.000000000,0.000000000,0.000000000
2080000000,0.000000000,0.000000000,0.000000000,0.974938176,0.097738231,0.192149761,0.054965994,0.000000000,0.000000000,0.000000000,0.000000000,0.000000000,0.000000000,0.000000000,0.000000000,0.000000000
2085000000,0.000000000,0.000000000,0.000000000,0.974789354,0.098188825,0.192637622,0.055094619,0.000000000,0.000000000,0.000000000,0.000000000,0.000000000,0.000000000,0.000000000,0.000000000,0.000000000
2089999999,0.000000000,0.000000000,0.000000000,0.974639949,0.098640301,0.193125513,0.055223156,0.000000000,0.000000000,0.000000000,0.000000000,0.000000000,0.000000000,0.000000000,0.000000000,0.000000000
2095000000,0.000000000,0.000000000,0.000000000,0.974489961,0.099092656,0.193613433,0.055351605,0.000000000,0.000000000,0.000000000,0.000000000,0.000000000,0.000000000,0.000000000,0.000000000,0.000000000
2100000000,0.000000000,0.000000000,0.000000000,0.974339388,0.099545890,0.194101380,0.055479966,0.000000000,0.000000000,0.000000000,0.000000000,0.000000000,0.000000000,0.000000000,0.000000000,0.000000000
2105000000,0.000000000,0.000000000,0.000000000,0.974188230,0.100000001,0.194589353,0.055608239,0.000000000,0.000000000,0.000000000,0.000000000,0.000000000,0.000000000,0.000000000,0.000000000,0.000000000
2109999999,0.000000000,0.000000000,0.000000000,0.974036485,0.100454987,0.195077353,0.055736421,0.000000000,0.000000000,0.000000000,0.000000000,0.000000000,0.000000000,0.000000000,0.000000000,0.000000000
2115000000,0.000000000,0.000000000,0.000000000,0.973884151,0.100910847,0.195565378,0.055864514,0.000000000,0.000000000,0.000000000,0.000000000,0.000000000,0.000000000,0.000000000,0.000000000,0.000000000
2120000000,0.000000000,0.000000000,0.000000000,0.973731229,0.101367580,0.196053427,0.055992517,0.000000000,0.000000000,0.000000000,0.000000000,0.000000000,0.000000000,0.000000000,0.000000000,0.000000000
2125000000,0.000000000,0.000000000,0.000000000,0.973577716,0.101825183,0.196541499,0.056120430,0.000000000,0.000000000,0.000000000,0.000000000,0.000000000,0.000000000,0.000000000,0.000000000,0.000000000
2130000000,0.000000000,0.000000000,0.000000000,0.973423611,0.102283655,0.197029593,0.056248251,0.000000000,0.000000000,0.000000000,0.000000000,0.000000000,0.000000000,0.000000000,0.000000000,0.000000000
2135000000,0.000000000,0.000000000,0.000000000,0.973268915,0.102742996,0.197517710,0.056375981,0.000000000,0.000000000,0.000000000,0.000000000,0.000000000,0.000000000,0.000000000,0.000000000,0.000000000
2140000000,0.000000000,0.000000000,0.000000000,0.973113624,0.103203203,0.198005847,0.056503619,0.000000000,0.000000000,0.000000000,0.000000000,0.000000000,0.000000000,0.000000000,0.000000000,0.000000000
2145000000,0.000000000,0.000000000,0.000000000,0.972957738,0.103664274,0.198494003,0.056631164,0.000000000,0.000000000,0.000000000,0.000000000,0.000000000,0.000000000,0.000000000,0.000000000,0.000000000
2150000000,0.000000000,0.000000000,0.000000000,0.972801256,0.104126209,0.198982179,0.056758617,0.000000000,0.000000000,0.000000000,0.000000000,0.000000000,0.000000000,0.000000000,0.000000000,0.000000000
2155000000,0.000000000,0.000000000,0.000000000,0.972644177,0.104589005,0.199470373,0.056885976,0.000000000,0.000000000,0.000000000,0.000000000,0.000000000,0.000000000,0.000000000,0.000000000,0.000000000
2160000000,0.000000000,0.000000000,0.000000000,0.972486500,0.105052662,0.199958584,0.057013242,0.000000000,0.000000000,0.000000000,0.000000000,0.000000000,0.000000000,0.000000000,0.000000000,0.000000000
2165000000,0.000000000,0.000000000,0.000000000,0.972328223,0.105517177,0.200446812,0.057140414,0.000000000,0.000000000,0.000000000,0.000000000,0.000000000,0.000000000,0.000000000,0.000000000,0.000000000
2170000000,0.000000000,0.000000000,0.000000000,0.972169346,0.105982549,0.200935055,0.057267491,0.000000000,0.000000000,0.000000000,0.000000000,0.000000000,0.000000000,0.000000000,0.000000000,0.000000000
2175000000,0.000000000,0.000000000,0.000000000,0.972009867,0.106448777,0.201423313,0.057394474,0.000000000,0.000000000,0.000000000,0.000000000,0.000000000,0.000000000,0.000000000,0.000000000,0.000000000
2180000000,0.000000000,0.000000000,0.000000000,0.971849785,0.106915858,0.201911585,0.057521361,0.000000000,0.000000000,0.000000000,0.000000000,0.000000000,0.000000000,0.000000000,0.000000000,0.000000000
2185000000,0.000000000,0.000000000,0.000000000,0.971689099,0.107383792,0.202399869,0.057648152,0.000000000,0.000000000,0.000000000,0.000000000,0.000000000,0.000000000,0.000000000,0.000000000,0.000000000
2190000000,0.000000000,0.000000000,0.000000000,0.971527808,0.107852577,0.202888166,0.057774847,0.000000000,0.000000000,0.000000000,0.000000000,0.000000000,0.000000000,0.000000000,0.000000000,0.000000000
2195000000,0.000000000,0.000000000,0.000000000,0.971365910,0.108322211,0.203376473,0.057901445,0.000000000,0.000000000,0.000000000,0.000000000,0.000000000,0.000000000,0.000000000,0.000000000,0.000000000
2200000000,0.000000000,0.000000000,0.000000000,0.971203405,0.108792692,0.203864791,0.058027946,0.000000000,0.000000000,0.000000000,0.000000000,0.000000000,0.000000000,0.000000000,0.000000000,0.000000000
2205000000,0.000000000,0.000000000,0.000000000,0.971040292,0.109264020,0.204353119,0.058154350,0.000000000,0.000000000,0.000000000,0.000000000,0.000000000,0.000000000,0.000000000,0.000000000,0.000000000
2210000000,0.000000000,0.000000000,0.000000000,0.970876569,0.109736192,0.204841455,0.058280656,0.000000000,0.000000000,0.000000000,0.000000000,0.000000000,0.000000000,0.000000000,0.000000000,0.000000000
2215000000,0.000000000,0.000000000,0.000000000,0.970712235,0.110209207,0.205329798,0.058406864,0.000000000,0.000000000,0.000000000,0.000000000,0.000000000,0.000000000,0.000000000,0.000000000,0.000000000
2220000000,0.000000000,0.000000000,0.000000000,0.970547289,0.110683063,0.205818149,0.058532973,0.000000000,0.000000000,0.000000000,0.000000000,0.000000000,0.000000000,0.000000000,0.000000000,0.000000000
2225000000,0.000000000,0.000000000,0.000000000,0.970381730,0.111157759,0.206306505,0.058658982,0.000000000,0.000000000,0.000000000,0.000000000,0.000000000,0.000000000,0.000000000,0.000000000,0.000000000
2230000000,0.000000000,0.000000000,0.000000000,0.970215557,0.111633293,0.206794866,0.058784892,0.000000000,0.000000000,0.000000000,0.000000000,0.000000000,0.000000000,0.000000000,0.000000000,0.000000000
2235000000,0.000000000,0.000000000,0.000000000,0.970048769,0.112109664,0.207283231,0.058910702,0.000000000,0.000000000,0.000000000,0.000000000,0.000000000,0.000000000,0.000000000,0.000000000,0.000000000
2240000000,0.000000000,0.000000000,0.000000000,0.969881365,0.112586870,0.207771599,0.059036412,0.000000000,0.000000000,0.000000000,0.000000000,0.000000000,0.000000000,0.000000000,0.000000000,0.000000000
2245000000,0.000000000,0.000000000,0.000000000,0.969713342,0.113064909,0.208259970,0.059162021,0.000000000,0.000000000,0.000000000,0.000000000,0.000000000,0.000000000,0.000000000,0.000000000,0.000000000
2250000000,0.000000000,0.000000000,0.000000000,0.969544702,0.113543779,0.208748342,0.059287528,0.000000000,0.000000000,0.000000000,0.000000000,0.000000000,0.000000000,0.000000000,0.000000000,0.000000000
2255000000,0.000000000,0.000000000,0.000000000,0.969375441,0.114023480,0.209236715,0.059412934,0.000000000,0.000000000,0.000000000,0.000000000,0.000000000,0.000000000,0.000000000,0.000000000,0.000000000
2260000000,0.000000000,0.000000000,0.000000000,0.969205560,0.114504009,0.209725087,0.059538238,0.000000000,0.000000000,0.000000000,0.000000000,0.000000000,0.000000000,0.000000000,0.000000000,0.000000000
2265000000,0.000000000,0.000000000,0.000000000,0.969035057,0.114985365,0.210213458,0.059663439,0.000000000,0.000000000,0.000000000,0.000000000,0.000000000,0.000000000,0.000000000,0.000000000,0.000000000
2270000000,0.000000000,0.000000000,0.000000000,0.968863931,0.115467547,0.210701827,0.059788538,0.000000000,0.000000000,0.000000000,0.000000000,0.000000000,0.000000000,0.000000000,0.000000000,0.000000000
2275000000,0.000000000,0.000000000,0.000000000,0.968692181,0.115950551,0.211190192,0.059913533,0.000000000,0.000000000,0.000000000,0.000000000,0.000000000,0.000000000,0.000000000,0.000000000,0.000000000
2280000000,0.000000000,0.000000000,0.000000000,0.968519805,0.116434378,0.211678554,0.060038424,0.000000000,0.000000000,0.000000000,0.000000000,0.000000000,0.000000000,0.000000000,0.000000000,0.000000000
2285000000,0.000000000,0.000000000,0.000000000,0.968346803,0.116919026,0.212166910,0.060163212,0.000000000,0.000000000,0.000000000,0.000000000,0.000000000,0.000000000,0.000000000,0.000000000,0.000000000
2290000000,0.000000000,0.000000000,0.000000000,0.968173174,0.117404492,0.212655261,0.060287894,0.000000000,0.000000000,0.000000000,0.000000000,0.000000000,0.000000000,0.000000000,0.000000000,0.000000000
2295000000,0.000000000,0.000000000,0.000000000,0.967998916,0.117890775,0.213143606,0.060412472,0.000000000,0.000000000,0.000000000,0.000000000,0.000000000,0.000000000,0.000000000,0.000000000,0.000000000
2300000000,0.000000000,0.000000000,0.000000000,0.967824029,0.118377873,0.213631942,0.060536945,0.000000000,0.000000000,0.000000000,0.000000000,0.000000000,0.000000000,0.000000000,0.000000000,0.000000000
2305000000,0.000000000,0.000000000,0.000000000,0.967648511,0.118865785,0.214120270,0.060661312,0.000000000,0.000000000,0.000000000,0.000000000,0.000000000,0.000000000,0.000000000,0.000000000,0.000000000
2310000000,0.000000000,0.000000000,0.000000000,0.967472361,0.119354509,0.214608589,0.060785572,0.000000000,0.000000000,0.000000000,0.000000000,0.000000000,0.000000000,0.000000000,0.000000000,0.000000000
2315000000,0.000000000,0.000000000,0.000000000,0.967295578,0.119844044,0.215096897,0.060909726,0.000000000,0.000000000,0.000000000,0.000000000,0.000000000,0.000000000,0.000000000,0.000000000,0.000000000
2320000000,0.000000000,0.000000000,0.000000000,0.967118161,0.120334388,0.215585194,0.061033774,0.000000000,0.000000000,0.000000000,0.000000000,0.000000000,0.000000000,0.000000000,0.000000000,0.000000000
2325000000,0.000000000,0.000000000,0.000000000,0.966940109,0.120825538,0.216073479,0.061157713,0.000000000,0.000000000,0.000000000,0.000000000,0.000000000,0.000000000,0.000000000,0.000000000,0.000000000
2330000000,0.000000000,0.000000000,0.000000000,0.966761421,0.121317495,0.216561750,0.061281545,0.000000000,0.000000000,0.000000000,0.000000000,0.000000000,0.000000000,0.000000000,0.000000000,0.000000000
2335000000,0.000000000,0.000000000,0.000000000,0.966582096,0.121810255,0.217050008,0.061405269,0.000000000,0.000000000,0.000000000,0.000000000,0.000000000,0.000000000,0.000000000,0.000000000,0.000000000
2340000000,0.000000000,0.000000000,0.000000000,0.966402133,0.122303817,0.217538250,0.061528885,0.000000000,0.000000000,0.000000000,0.000000000,0.000000000,0.000000000,0.000000000,0.000000000,0.000000000
2345000000,0.000000000,0.000000000,0.000000000,0.966221530,0.122798179,0.218026477,0.061652391,0.000000000,0.000000000,0.000000000,0.000000000,0.000000000,0.000000000,0.000000000,0.000000000,0.000000000
2350000000,0.000000000,0.000000000,0.000000000,0.966040287,0.123293340,0.218514687,0.061775789,0.000000000,0.000000000,0.000000000,0.000000000,0.000000000,0.000000000,0.000000000,0.000000000,0.000000000
2355000000,0.000000000,0.000000000,0.000000000,0.965858402,0.123789299,0.219002879,0.061899076,0.000000000,0.000000000,0.000000000,0.000000000,0.000000000,0.000000000,0.000000000,0.000000000,0.000000000
2360000000,0.000000000,0.000000000,0.000000000,0.965675875,0.124286052,0.219491053,0.062022253,0.000000000,0.000000000,0.000000000,0.000000000,0.000000000,0.000000000,0.000000000,0.000000000,0.000000000
2365000000,0.000000000,0.000000000,0.000000000,0.965492704,0.124783600,0.219979207,0.062145320,0.000000000,0.000000000,0.000000000,0.000000000,0.000000000,0.000000000,0.000000000,0.000000000,0.000000000
2370000000,0.000000000,0.000000000,0.000000000,0.965308888,0.125281939,0.220467341,0.062268276,0.000000000,0.000000000,0.000000000,0.000000000,0.000000000,0.000000000,0.000000000,0.000000000,0.000000000
2375000000,0.000000000,0.000000000,0.000000000,0.965124427,0.125781069,0.220955453,0.062391121,0.000000000,0.000000000,0.000000000,0.000000000,0.000000000,0.000000000,0.000000000,0.000000000,0.000000000
2380000000,0.000000000,0.000000000,0.000000000,0.964939318,0.126280987,0.221443542,0.062513854,0.000000000,0.000000000,0.000000000,0.000000000,0.000000000,0.000000000,0.000000000,0.000000000,0.000000000
2385000000,0.000000000,0.000000000,0.000000000,0.964753562,0.126781693,0.221931609,0.062636475,0.000000000,0.000000000,0.000000000,0.000000000,0.000000000,0.000000000,0.000000000,0.000000000,0.000000000
2390000000,0.000000000,0.000000000,0.000000000,0.964567157,0.127283183,0.222419651,0.062758984,0.000000000,0.000000000,0.000000000,0.000000000,0.000000000,0.000000000,0.000000000,0.000000000,0.000000000
2395000000,0.000000000,0.000000000,0.000000000,0.964380102,0.127785457,0.222907668,0.062881379,0.000000000,0.000000000,0.000000000,0.000000000,0.000000000,0.000000000,0.000000000,0.000000000,0.000000000
2400000000,0.000000000,0.000000000,0.000000000,0.964192396,0.128288512,0.223395659,0.063003662,0.000000000,0.000000000,0.000000000,0.000000000,0.000000000,0.000000000,0.000000000,0.000000000,0.000000000
2405000000,0.000000000,0.000000000,0.000000000,0.964004037,0.128792348,0.223883623,0.063125831,0.000000000,0.000000000,0.000000000,0.000000000,0.000000000,0.000000000,0.000000000,0.000000000,0.000000000
2410000000,0.000000000,0.000000000,0.000000000,0.963815026,0.129296962,0.224371559,0.063247886,0.000000000,0.000000000,0.000000000,0.000000000,0.000000000,0.000000000,0.000000000,0.000000000,0.000000000
2415000000,0.000000000,0.000000000,0.000000000,0.963625360,0.129802352,0.224859466,0.063369827,0.000000000,0.000000000,0.000000000,0.000000000,0.000000000,0.000000000,0.000000000,0.000000000,0.000000000
2420000000,0.000000000,0.000000000,0.000000000,0.963435039,0.130308518,0.225347343,0.063491653,0.000000000,0.000000000,0.000000000,0.000000000,0.000000000,0.000000000,0.000000000,0.000000000,0.000000000
2425000000,0.000000000,0.000000000,0.000000000,0.963244062,0.130815456,0.225835189,0.063613363,0.000000000,0.000000000,0.000000000,0.000000000,0.000000000,0.000000000,0.000000000,0.000000000,0.000000000
2430000000,0.000000000,0.000000000,0.000000000,0.963052428,0.131323166,0.226323004,0.063734959,0.000000000,0.000000000,0.000000000,0.000000000,0.000000000,0.000000000,0.000000000,0.000000000,0.000000000
2435000000,0.000000000,0.000000000,0.000000000,0.962860135,0.131831646,0.226810786,0.063856438,0.000000000,0.000000000,0.000000000,0.000000000,0.000000000,0.000000000,0.000000000,0.000000000,0.000000000
2440000000,0.000000000,0.000000000,0.000000000,0.962667183,0.132340893,0.227298534,0.063977802,0.000000000,0.000000000,0.000000000,0.000000000,0.000000000,0.000000000,0.000000000,0.000000000,0.000000000
2445000000,0.000000000,0.000000000,0.000000000,0.962473570,0.132850907,0.227786248,0.064099048,0.000000000,0.000000000,0.000000000,0.000000000,0.000000000,0.000000000,0.000000000,0.000000000,0.000000000
2450000000,0.000000000,0.000000000,0.000000000,0.962279297,0.133361685,0.228273926,0.064220178,0.000000000,0.000000000,0.000000000,0.000000000,0.000000000,0.000000000,0.000000000,0.000000000,0.000000000
2455000000,0.000000000,0.000000000,0.000000000,0.962084360,0.133873225,0.228761568,0.064341190,0.000000000,0.000000000,0.000000000,0.000000000,0.000000000,0.000000000,0.000000000,0.000000000,0.000000000
2460000000,0.000000000,0.000000000,0.000000000,0.961888760,0.134385527,0.229249172,0.064462085,0.000000000,0.000000000,0.000000000,0.000000000,0.000000000,0.000000000,0.000000000,0.000000000,0.000000000
2465000000,0.000000000,0.000000000,0.000000000,0.961692496,0.134898587,0.229736738,0.064582862,0.000000000,0.000000000,0.000000000,0.000000000,0.000000000,0.000000000,0.000000000,0.000000000,0.000000000
2470000000,0.000000000,0.000000000,0.000000000,0.961495566,0.135412405,0.230224264,0.064703520,0.000000000,0.000000000,0.000000000,0.000000000,0.000000000,0.000000000,0.000000000,0.000000000,0.000000000
2475000000,0.000000000,0.000000000,0.000000000,0.961297969,0.135926979,0.230711750,0.064824059,0.000000000,0.000000000,0.000000000,0.000000000,0.000000000,0.000000000,0.000000000,0.000000000,0.000000000
2480000000,0.000000000,0.000000000,0.000000000,0.961099706,0.136442306,0.231199195,0.064944479,0.000000000,0.000000000,0.000000000,0.000000000,0.000000000,0.000000000,0.000000000,0.000000000,0.000000000
2485000000,0.000000000,0.000000000,0.000000000,0.960900773,0.136958386,0.231686597,0.065064780,0.000000000,0.000000000,0.000000000,0.000000000,0.000000000,0.000000000,0.000000000,0.000000000,0.000000000
2490000000,0.000000000,0.000000000,0.000000000,0.960701171,0.137475216,0.232173957,0.065184960,0.000000000,0.000000000,0.000000000,0.000000000,0.000000000,0.000000000,0.000000000,0.000000000,0.000000000
2495000000,0.000000000,0.000000000,0.000000000,0.960500898,0.137992794,0.232661272,0.065305021,0.000000000,0.000000000,0.000000000,0.000000000,0.000000000,0.000000000,0.000000000,0.000000000,0.000000000
2500000000,0.000000000,0.000000000,0.000000000,0.960299954,0.138511119,0.233148542,0.065424960,0.000000000,0.000000000,0.000000000,0.000000000,0.000000000,0.000000000,0.000000000,0.000000000,0.000000000
2505000000,0.000000000,0.000000000,0.000000000,0.960098337,0.139030189,0.233635766,0.065544779,0.000000000,0.000000000,0.000000000,0.000000000,0.000000000,0.000000000,0.000000000,0.000000000,0.000000000
2510000000,0.000000000,0.000000000,0.000000000,0.959896047,0.139550001,0.234122943,0.065664477,0.000000000,0.000000000,0.000000000,0.000000000,0.000000000,0.000000000,0.000000000,0.000000000,0.000000000
2515000000,0.000000000,0.000000000,0.000000000,0.959693082,0.140070556,0.234610072,0.065784052,0.000000000,0.000000000,0.000000000,0.000000000,0.000000000,0.000000000,0.000000000,0.000000000,0.000000000
2520000000,0.000000000,0.000000000,0.000000000,0.959489442,0.140591850,0.235097152,0.065903506,0.000000000,0.000000000,0.000000000,0.000000000,0.000000000,0.000000000,0.000000000,0.000000000,0.000000000
2525000000,0.000000000,0.000000000,0.000000000,0.959285125,0.141113881,0.235584182,0.066022837,0.000000000,0.000000000,0.000000000,0.000000000,0.000000000,0.000000000,0.000000000,0.000000000,0.000000000
2530000000,0.000000000,0.000000000,0.000000000,0.959080130,0.141636649,0.236071161,0.066142045,0.000000000,0.000000000,0.000000000,0.000000000,0.000000000,0.000000000,0.000000000,0.000000000,0.000000000
2535000000,0.000000000,0.000000000,0.000000000,0.958874457,0.142160150,0.236558089,0.066261131,0.000000000,0.000000000,0.000000000,0.000000000,0.000000000,0.000000000,0.000000000,0.000000000,0.000000000
2540000000,0.000000000,0.000000000,0.000000000,0.958668105,0.142684384,0.237044963,0.066380092,0.000000000,0.000000000,0.000000000,0.000000000,0.000000000,0.000000000,0.000000000,0.000000000,0.000000000
2545000000,0.000000000,0.000000000,0.000000000,0.958461072,0.143209348,0.237531784,0.066498930,0.000000000,0.000000000,0.000000000,0.000000000,0.000000000,0.000000000,0.000000000,0.000000000,0.000000000
2550000000,0.000000000,0.000000000,0.000000000,0.958253358,0.143735041,0.238018549,0.066617644,0.000000000,0.000000000,0.000000000,0.000000000,0.000000000,0.000000000,0.000000000,0.000000000,0.000000000
2555000000,0.000000000,0.000000000,0.000000000,0.958044961,0.144261461,0.238505259,0.066736233,0.000000000,0.000000000,0.000000000,0.000000000,0.000000000,0.000000000,0.000000000,0.000000000,0.000000000
2560000000,0.000000000,0.000000000,0.000000000,0.957835881,0.144788606,0.238991912,0.066854698,0.000000000,0.000000000,0.000000000,0.000000000,0.000000000,0.000000000,0.000000000,0.000000000,0.000000000
2565000000,0.000000000,0.000000000,0.000000000,0.957626117,0.145316474,0.239478508,0.066973037,0.000000000,0.000000000,0.000000000,0.000000000,0.000000000,0.000000000,0.000000000,0.000000000,0.000000000
2570000000,0.000000000,0.000000000,0.000000000,0.957415667,0.145845064,0.239965044,0.067091250,0.000000000,0.000000000,0.000000000,0.000000000,0.000000000,0.000000000,0.000000000,0.000000000,0.000000000
2575000000,0.000000000,0.000000000,0.000000000,0.957204531,0.146374373,0.240451521,0.067209338,0.000000000,0.000000000,0.000000000,0.000000000,0.000000000,0.000000000,0.000000000,0.000000000,0.000000000
2580000000,0.000000000,0.000000000,0.000000000,0.956992708,0.146904400,0.240937937,0.067327299,0.000000000,0.000000000,0.000000000,0.000000000,0.000000000,0.000000000,0.000000000,0.000000000,0.000000000
2585000000,0.000000000,0.000000000,0.000000000,0.956780196,0.147435142,0.241424292,0.067445134,0.000000000,0.000000000,0.000000000,0.000000000,0.000000000,0.000000000,0.000000000,0.000000000,0.000000000
2590000000,0.000000000,0.000000000,0.000000000,0.956566996,0.147966599,0.241910584,0.067562842,0.000000000,0.000000000,0.000000000,0.000000000,0.000000000,0.000000000,0.000000000,0.000000000,0.000000000
2595000000,0.000000000,0.000000000,0.000000000,0.956353105,0.148498767,0.242396812,0.067680422,0.000000000,0.000000000,0.000000000,0.000000000,0.000000000,0.000000000,0.000000000,0.000000000,0.000000000
2600000000,0.000000000,0.000000000,0.000000000,0.956138524,0.149031646,0.242882976,0.067797875,0.000000000,0.000000000,0.000000000,0.000000000,0.000000000,0.000000000,0.000000000,0.000000000,0.000000000
2605000000,0.000000000,0.000000000,0.000000000,0.955923250,0.149565234,0.243369074,0.067915200,0.000000000,0.000000000,0.000000000,0.000000000,0.000000000,0.000000000,0.000000000,0.000000000,0.000000000
2610000000,0.000000000,0.000000000,0.000000000,0.955707284,0.150099528,0.243855105,0.068032397,0.000000000,0.000000000,0.000000000,0.000000000,0.000000000,0.000000000,0.000000000,0.000000000,0.000000000
2615000000,0.000000000,0.000000000,0.000000000,0.955490624,0.150634527,0.244341069,0.068149465,0.000000000,0.000000000,0.000000000,0.000000000,0.000000000,0.000000000,0.000000000,0.000000000,0.000000000
2620000000,0.000000000,0.000000000,0.000000000,0.955273269,0.151170229,0.244826964,0.068266404,0.000000000,0.000000000,0.000000000,0.000000000,0.000000000,0.000000000,0.000000000,0.000000000,0.000000000
2625000000,0.000000000,0.000000000,0.000000000,0.955055218,0.151706631,0.245312790,0.068383214,0.000000000,0.000000000,0.000000000,0.000000000,0.000000000,0.000000000,0.000000000,0.000000000,0.000000000
2630000000,0.000000000,0.000000000,0.000000000,0.954836471,0.152243733,0.245798544,0.068499894,0.000000000,0.000000000,0.000000000,0.000000000,0.000000000,0.000000000,0.000000000,0.000000000,0.000000000
2635000000,0.000000000,0.000000000,0.000000000,0.954617026,0.152781532,0.246284228,0.068616444,0.000000000,0.000000000,0.000000000,0.000000000,0.000000000,0.000000000,0.000000000,0.000000000,0.000000000
2640000000,0.000000000,0.000000000,0.000000000,0.954396883,0.153320027,0.246769839,0.068732864,0.000000000,0.000000000,0.000000000,0.000000000,0.000000000,0.000000000,0.000000000,0.000000000,0.000000000
2645000000,0.000000000,0.000000000,0.000000000,0.954176040,0.153859215,0.247255376,0.068849154,0.000000000,0.000000000,0.000000000,0.000000000,0.000000000,0.000000000,0.000000000,0.000000000,0.000000000
2650000000,0.000000000,0.000000000,0.000000000,0.953954497,0.154399095,0.247740838,0.068965312,0.000000000,0.000000000,0.000000000,0.000000000,0.000000000,0.000000000,0.000000000,0.000000000,0.000000000
2655000000,0.000000000,0.000000000,0.000000000,0.953732253,0.154939664,0.248226226,0.069081339,0.000000000,0.000000000,0.000000000,0.000000000,0.000000000,0.000000000,0.000000000,0.000000000,0.000000000
2660000000,0.000000000,0.000000000,0.000000000,0.953509306,0.155480922,0.248711536,0.069197235,0.000000000,0.000000000,0.000000000,0.000000000,0.000000000,0.000000000,0.000000000,0.000000000,0.000000000
2665000000,0.000000000,0.000000000,0.000000000,0.953285657,0.156022865,0.249196769,0.069312999,0.000000000,0.000000000,0.000000000,0.000000000,0.000000000,0.000000000,0.000000000,0.000000000,0.000000000
2670000000,0.000000000,0.000000000,0.000000000,0.953061304,0.156565492,0.249681923,0.069428630,0.000000000,0.000000000,0.000000000,0.000000000,0.000000000,0.000000000,0.000000000,0.000000000,0.000000000
2675000000,0.000000000,0.000000000,0.000000000,0.952836246,0.157108802,0.250166998,0.069544129,0.000000000,0.000000000,0.000000000,0.000000000,0.000000000,0.000000000,0.000000000,0.000000000,0.000000000
2680000000,0.000000000,0.000000000,0.000000000,0.952610482,0.157652792,0.250651992,0.069659495,0.000000000,0.000000000,0.000000000,0.000000000,0.000000000,0.000000000,0.000000000,0.000000000,0.000000000
2685000000,0.000000000,0.000000000,0.000000000,0.952384012,0.158197460,0.251136905,0.069774728,0.000000000,0.000000000,0.000000000,0.000000000,0.000000000,0.000000000,0.000000000,0.000000000,0.000000000
2690000000,0.000000000,0.000000000,0.000000000,0.952156834,0.158742804,0.251621735,0.069889828,0.000000000,0.000000000,0.000000000,0.000000000,0.000000000,0.000000000,0.000000000,0.000000000,0.000000000
2695000000,0.000000000,0.000000000,0.000000000,0.951928948,0.159288824,0.252106481,0.070004793,0.000000000,0.000000000,0.000000000,0.000000000,0.000000000,0.000000000,0.000000000,0.000000000,0.000000000
2700000000,0.000000000,0.000000000,0.000000000,0.951700353,0.159835515,0.252591142,0.070119625,0.000000000,0.000000000,0.000000000,0.000000000,0.000000000,0.000000000,0.000000000,0.000000000,0.000000000
2705000000,0.000000000,0.000000000,0.000000000,0.951471047,0.160382878,0.253075718,0.070234322,0.000000000,0.000000000,0.000000000,0.000000000,0.000000000,0.000000000,0.000000000,0.000000000,0.000000000
2710000000,0.000000000,0.000000000,0.000000000,0.951241030,0.160930909,0.253560208,0.070348884,0.000000000,0.000000000,0.000000000,0.000000000,0.000000000,0.000000000,0.000000000,0.000000000,0.000000000
2715000000,0.000000000,0.000000000,0.000000000,0.951010302,0.161479608,0.254044610,0.070463311,0.000000000,0.000000000,0.000000000,0.000000000,0.000000000,0.000000000,0.000000000,0.000000000,0.000000000
2720000000,0.000000000,0.000000000,0.000000000,0.950778861,0.162028971,0.254528923,0.070577603,0.000000000,0.000000000,0.000000000,0.000000000,0.000000000,0.000000000,0.000000000,0.000000000,0.000000000
2725000000,0.000000000,0.000000000,0.000000000,0.950546706,0.162578997,0.255013146,0.070691760,0.000000000,0.000000000,0.000000000,0.000000000,0.000000000,0.000000000,0.000000000,0.000000000,0.000000000
2730000000,0.000000000,0.000000000,0.000000000,0.950313837,0.163129684,0.255497279,0.070805780,0.000000000,0.000000000,0.000000000,0.000000000,0.000000000,0.000000000,0.000000000,0.000000000,0.000000000
2735000000,0.000000000,0.000000000,0.000000000,0.950080252,0.163681031,0.255981320,0.070919664,0.000000000,0.000000000,0.000000000,0.000000000,0.000000000,0.000000000,0.000000000,0.000000000,0.000000000
2740000000,0.000000000,0.000000000,0.000000000,0.949845951,0.164233034,0.256465268,0.071033411,0.000000000,0.000000000,0.000000000,0.000000000,0.000000000,0.000000000,0.000000000,0.000000000,0.000000000
2745000000,0.000000000,0.000000000,0.000000000,0.949610934,0.164785693,0.256949122,0.071147022,0.000000000,0.000000000,0.000000000,0.000000000,0.000000000,0.000000000,0.000000000,0.000000000,0.000000000
2750000000,0.000000000,0.000000000,0.000000000,0.949375198,0.165339006,0.257432882,0.071260495,0.000000000,0.000000000,0.000000000,0.000000000,0.000000000,0.000000000,0.000000000,0.000000000,0.000000000
2755000000,0.000000000,0.000000000,0.000000000,0.949138743,0.165892970,0.257916546,0.071373831,0.000000000,0.000000000,0.000000000,0.000000000,0.000000000,0.000000000,0.000000000,0.000000000,0.000000000
2760000000,0.000000000,0.000000000,0.000000000,0.948901570,0.166447583,0.258400113,0.071487029,0.000000000,0.000000000,0.000000000,0.000000000,0.000000000,0.000000000,0.000000000,0.000000000,0.000000000
2765000000,0.000000000,0.000000000,0.000000000,0.948663675,0.167002843,0.258883582,0.071600089,0.000000000,0.000000000,0.000000000,0.000000000,0.000000000,0.000000000,0.000000000,0.000000000,0.000000000
2770000000,0.000000000,0.000000000,0.000000000,0.948425060,0.167558750,0.259366952,0.071713011,0.000000000,0.000000000,0.000000000,0.000000000,0.000000000,0.000000000,0.000000000,0.000000000,0.000000000
2775000000,0.000000000,0.000000000,0.000000000,0.948185722,0.168115299,0.259850222,0.071825794,0.000000000,0.000000000,0.000000000,0.000000000,0.000000000,0.000000000,0.000000000,0.000000000,0.000000000
2780000000,0.000000000,0.000000000,0.000000000,0.947945661,0.168672491,0.260333392,0.071938438,0.000000000,0.000000000,0.000000000,0.000000000,0.000000000,0.000000000,0.000000000,0.000000000,0.000000000
2785000000,0.000000000,0.000000000,0.000000000,0.947704877,0.169230322,0.260816459,0.072050943,0.000000000,0.000000000,0.000000000,0.000000000,0.000000000,0.000000000,0.000000000,0.000000000,0.000000000
2790000000,0.000000000,0.000000000,0.000000000,0.947463368,0.169788791,0.261299424,0.072163308,0.000000000,0.000000000,0.000000000,0.000000000,0.000000000,0.000000000,0.000000000,0.000000000,0.000000000
2795000000,0.000000000,0.000000000,0.000000000,0.947221134,0.170347895,0.261782284,0.072275534,0.000000000,0.000000000,0.000000000,0.000000000,0.000000000,0.000000000,0.000000000,0.000000000,0.000000000
2800000000,0.000000000,0.000000000,0.000000000,0.946978174,0.170907633,0.262265040,0.072387619,0.000000000,0.000000000,0.000000000,0.000000000,0.000000000,0.000000000,0.000000000,0.000000000,0.000000000
2805000000,0.000000000,0.000000000,0.000000000,0.946734487,0.171468003,0.262747689,0.072499564,0.000000000,0.000000000,0.000000000,0.000000000,0.000000000,0.000000000,0.000000000,0.000000000,0.000000000
2810000000,0.000000000,0.000000000,0.000000000,0.946490072,0.172029003,0.263230232,0.072611368,0.000000000,0.000000000,0.000000000,0.000000000,0.000000000,0.000000000,0.000000000,0.000000000,0.000000000
2815000000,0.000000000,0.000000000,0.000000000,0.946244929,0.172590631,0.263712666,0.072723031,0.000000000,0.000000000,0.000000000,0.000000000,0.000000000,0.000000000,0.000000000,0.000000000,0.000000000
2820000000,0.000000000,0.000000000,0.000000000,0.945999056,0.173152884,0.264194991,0.072834554,0.000000000,0.000000000,0.000000000,0.000000000,0.000000000,0.000000000,0.000000000,0.000000000,0.000000000
2825000000,0.000000000,0.000000000,0.000000000,0.945752453,0.173715761,0.264677206,0.072945934,0.000000000,0.000000000,0.000000000,0.000000000,0.000000000,0.000000000,0.000000000,0.000000000,0.000000000
2830000000,0.000000000,0.000000000,0.000000000,0.945505119,0.174279261,0.265159309,0.073057173,0.000000000,0.000000000,0.000000000,0.000000000,0.000000000,0.000000000,0.000000000,0.000000000,0.000000000
2835000000,0.000000000,0.000000000,0.000000000,0.945257053,0.174843380,0.265641300,0.073168269,0.000000000,0.000000000,0.000000000,0.000000000,0.000000000,0.000000000,0.000000000,0.000000000,0.000000000
2840000000,0.000000000,0.000000000,0.000000000,0.945008255,0.175408116,0.266123178,0.073279224,0.000000000,0.000000000,0.000000000,0.000000000,0.000000000,0.000000000,0.000000000,0.000000000,0.000000000
2845000000,0.000000000,0.000000000,0.000000000,0.944758724,0.175973469,0.266604942,0.073390035,0.000000000,0.000000000,0.000000000,0.000000000,0.000000000,0.000000000,0.000000000,0.000000000,0.000000000
2850000000,0.000000000,0.000000000,0.000000000,0.944508458,0.176539436,0.267086590,0.073500704,0.000000000,0.000000000,0.000000000,0.000000000,0.000000000,0.000000000,0.000000000,0.000000000,0.000000000
2855000000,0.000000000,0.000000000,0.000000000,0.944257458,0.177106014,0.267568122,0.073611229,0.000000000,0.000000000,0.000000000,0.000000000,0.000000000,0.000000000,0.000000000,0.000000000,0.000000000
2860000000,0.000000000,0.000000000,0.000000000,0.944005722,0.177673202,0.268049536,0.073721611,0.000000000,0.000000000,0.000000000,0.000000000,0.000000000,0.000000000,0.000000000,0.000000000,0.000000000
2865000000,0.000000000,0.000000000,0.000000000,0.943753250,0.178240999,0.268530832,0.073831850,0.000000000,0.000000000,0.000000000,0.000000000,0.000000000,0.000000000,0.000000000,0.000000000,0.000000000
2870000000,0.000000000,0.000000000,0.000000000,0.943500040,0.178809401,0.269012009,0.073941944,0.000000000,0.000000000,0.000000000,0.000000000,0.000000000,0.000000000,0.000000000,0.000000000,0.000000000
2875000000,0.000000000,0.000000000,0.000000000,0.943246093,0.179378406,0.269493064,0.074051894,0.000000000,0.000000000,0.000000000,0.000000000,0.000000000,0.000000000,0.000000000,0.000000000,0.000000000
2880000000,0.000000000,0.000000000,0.000000000,0.942991408,0.179948014,0.269973998,0.074161700,0.000000000,0.000000000,0.000000000,0.000000000,0.000000000,0.000000000,0.000000000,0.000000000,0.000000000
2885000000,0.000000000,0.000000000,0.000000000,0.942735982,0.180518221,0.270454810,0.074271361,0.000000000,0.000000000,0.000000000,0.000000000,0.000000000,0.000000000,0.000000000,0.000000000,0.000000000
2890000000,0.000000000,0.000000000,0.000000000,0.942479817,0.181089026,0.270935498,0.074380876,0.000000000,0.000000000,0.000000000,0.000000000,0.000000000,0.000000000,0.000000000,0.000000000,0.000000000
2895000000,0.000000000,0.000000000,0.000000000,0.942222911,0.181660427,0.271416060,0.074490247,0.000000000,0.000000000,0.000000000,0.000000000,0.000000000,0.000000000,0.000000000,0.000000000,0.000000000
2900000000,0.000000000,0.000000000,0.000000000,0.941965264,0.182232422,0.271896498,0.074599471,0.000000000,0.000000000,0.000000000,0.000000000,0.000000000,0.000000000,0.000000000,0.000000000,0.000000000
2905000000,0.000000000,0.000000000,0.000000000,0.941706874,0.182805008,0.272376808,0.074708550,0.000000000,0.000000000,0.000000000,0.000000000,0.000000000,0.000000000,0.000000000,0.000000000,0.000000000
2910000000,0.000000000,0.000000000,0.000000000,0.941447741,0.183378184,0.272856990,0.074817483,0.000000000,0.000000000,0.000000000,0.000000000,0.000000000,0.000000000,0.000000000,0.000000000,0.000000000
2915000000,0.000000000,0.000000000,0.000000000,0.941187864,0.183951948,0.273337043,0.074926270,0.000000000,0.000000000,0.000000000,0.000000000,0.000000000,0.000000000,0.000000000,0.000000000,0.000000000
2920000000,0.000000000,0.000000000,0.000000000,0.940927243,0.184526297,0.273816967,0.075034910,0.000000000,0.000000000,0.000000000,0.000000000,0.000000000,0.000000000,0.000000000,0.000000000,0.000000000
2925000000,0.000000000,0.000000000,0.000000000,0.940665877,0.185101229,0.274296759,0.075143403,0.000000000,0.000000000,0.000000000,0.000000000,0.000000000,0.000000000,0.000000000,0.000000000,0.000000000
2930000000,0.000000000,0.000000000,0.000000000,0.940403765,0.185676743,0.274776419,0.075251749,0.000000000,0.000000000,0.000000000,0.000000000,0.000000000,0.000000000,0.000000000,0.000000000,0.000000000
2935000000,0.000000000,0.000000000,0.000000000,0.940140906,0.186252837,0.275255946,0.075359947,0.000000000,0.000000000,0.000000000,0.000000000,0.000000000,0.000000000,0.000000000,0.000000000,0.000000000
2940000000,0.000000000,0.000000000,0.000000000,0.939877300,0.186829508,0.275735339,0.075467998,0.000000000,0.000000000,0.000000000,0.000000000,0.000000000,0.000000000,0.000000000,0.000000000,0.000000000
2945000000,0.000000000,0.000000000,0.000000000,0.939612946,0.187406754,0.276214596,0.075575901,0.000000000,0.000000000,0.000000000,0.000000000,0.000000000,0.000000000,0.000000000,0.000000000,0.000000000
